Trial_Number,Flex0_or_Spec1,Transition_Prob,First_Choice,RT1,Second_Choice,RT2,Reward,Winning_Resource
1,0,0.7,0,0,0,0,1,NaN
2,0,0.3,0,0,1,0,1,NaN
3,0,0.7,0,0,0,0,1,NaN
4,0,0.3,0,0,1,0,1,NaN
5,0,0.7,0,0,0,0,0,NaN
6,0,0.7,0,0,0,0,0,NaN
7,0,0.3,0,0,1,0,0,NaN
8,0,0.7,0,0,0,0,0,NaN
9,0,0.7,1,0,1,0,1,NaN
10,0,0.3,1,0,1,0,0,NaN
11,1,0.7,0,0,0,0,1,0.5
12,0,0.3,0,0,0,0,1,NaN
13,1,0.7,1,0,0,0,0,0.5
14,0,0.3,0,0,1,0,1,NaN
15,1,0.7,0,0,0,0,1,0.5
16,0,0.7,0,0,1,0,0,NaN
17,0,0.7,1,0,1,0,1,NaN
18,0,0.3,1,0,1,0,0,NaN
19,0,0.7,1,0,0,0,1,NaN
20,1,0.7,1,0,0,0,1,1
21,0,0.3,1,0,1,0,0,NaN
22,0,0.7,1,0,0,0,1,NaN
23,1,0.7,1,0,1,0,1,0.5
24,0,0.7,1,0,0,0,1,NaN
25,0,0.3,0,0,1,0,1,NaN
26,1,0.7,0,0,1,0,1,0
27,0,0.7,0,0,0,0,0,NaN
28,1,0.7,0,0,1,0,0,0.5
29,0,0.7,1,0,1,0,1,NaN
30,1,0.7,1,0,0,0,1,1
31,0,0.7,0,0,0,0,0,NaN
32,1,0.7,1,0,0,0,1,1
33,0,0.7,0,0,1,0,1,NaN
34,1,0.7,1,0,0,0,1,0.5
35,0,0.3,0,0,1,0,0,NaN
36,0,0.7,0,0,0,0,1,NaN
37,0,0.7,0,0,1,0,1,NaN
38,0,0.3,0,0,1,0,1,NaN
39,0,0.7,0,0,1,0,1,NaN
40,0,0.3,0,0,0,0,1,NaN
41,0,0.7,0,0,1,0,0,NaN
42,1,0.7,0,0,1,0,1,0
43,0,0.7,0,0,1,0,1,NaN
44,0,0.3,0,0,0,0,0,NaN
45,1,0.7,1,0,0,0,1,1
46,0,0.7,0,0,1,0,1,NaN
47,0,0.7,0,0,1,0,0,NaN
48,0,0.3,0,0,1,0,0,NaN
49,1,0.7,0,0,1,0,1,0
50,0,0.7,0,0,1,0,1,NaN
51,1,0.7,0,0,0,0,1,0.5
52,0,0.3,0,0,1,0,0,NaN
53,1,0.7,0,0,1,0,1,0.5
54,0,0.3,0,0,0,0,1,NaN
55,1,0.7,0,0,0,0,1,0.5
56,0,0.7,0,0,1,0,0,NaN
57,0,0.3,0,0,0,0,1,NaN
58,0,0.7,0,0,1,0,0,NaN
59,1,0.7,0,0,1,0,1,1
60,0,0.3,0,0,0,0,0,NaN
61,1,0.7,1,0,1,0,1,0
62,0,0.7,0,0,1,0,0,NaN
63,0,0.3,1,0,0,0,0,NaN
64,0,0.7,1,0,1,0,1,NaN
65,0,0.3,1,0,1,0,0,NaN
66,0,0.7,1,0,1,0,0,NaN
67,1,0.7,1,0,1,0,0,1
68,0,0.3,1,0,0,0,0,NaN
69,0,0.7,1,0,1,0,1,NaN
70,0,0.3,1,0,1,0,0,NaN
71,0,0.7,1,0,1,0,1,NaN
72,1,0.7,1,0,0,0,0,0.5
73,0,0.3,1,0,0,0,0,NaN
74,0,0.7,1,0,1,0,0,NaN
75,0,0.7,1,0,1,0,1,NaN
76,0,0.3,1,0,0,0,1,NaN
77,1,0.7,1,0,1,0,1,0
78,0,0.7,0,0,1,0,0,NaN
79,0,0.7,0,0,1,0,1,NaN
80,0,0.7,0,0,1,0,0,NaN
81,1,0.7,0,0,0,0,1,0.5
82,0,0.7,0,0,0,0,1,NaN
83,0,0.7,0,0,0,0,1,NaN
84,0,0.3,0,0,0,0,1,NaN
85,1,0.7,0,0,0,0,0,0.5
86,0,0.3,0,0,1,0,0,NaN
87,1,0.7,1,0,1,0,1,0
88,0,0.3,1,0,1,0,1,NaN
89,0,0.7,1,0,1,0,0,NaN
90,0,0.7,1,0,1,0,1,NaN
91,0,0.7,1,0,1,0,0,NaN
92,1,0.7,1,0,1,0,0,0.5
93,0,0.7,1,0,1,0,0,NaN
94,0,0.3,0,0,1,0,0,NaN
95,0,0.7,1,0,0,0,1,NaN
96,0,0.7,1,0,0,0,1,NaN
97,0,0.3,1,0,0,0,1,NaN
98,0,0.7,1,0,0,0,0,NaN
99,0,0.3,1,0,0,0,1,NaN
100,0,0.7,0,0,0,0,0,NaN
101,0,0.7,0,0,0,0,1,NaN
102,0,0.7,0,0,0,0,1,NaN
103,0,0.3,0,0,1,0,0,NaN
104,0,0.7,0,0,0,0,1,NaN
105,0,0.7,0,0,0,0,1,NaN
106,0,0.3,0,0,0,0,1,NaN
107,1,0.7,0,0,0,0,0,0.5
108,0,0.7,0,0,1,0,0,NaN
109,0,0.3,0,0,0,0,0,NaN
110,1,0.7,0,0,1,0,1,1
111,0,0.7,0,0,0,0,0,NaN
112,1,0.7,1,0,1,0,0,1
113,0,0.3,0,0,1,0,1,NaN
114,1,0.7,1,0,1,0,1,0
115,0,0.7,1,0,1,0,0,NaN
116,0,0.3,1,0,1,0,0,NaN
117,0,0.7,1,0,1,0,0,0.5
118,0,0.7,1,0,1,0,1,NaN
119,0,0.3,1,0,1,0,0,NaN
120,0,0.7,1,0,1,0,0,NaN
121,0,0.7,1,0,1,0,1,NaN
122,0,0.3,0,0,1,0,0,NaN
123,0,0.7,0,0,0,0,1,NaN
124,1,0.7,0,0,1,0,0,0
125,0,0.7,0,0,0,0,1,NaN
126,0,0.3,0,0,1,0,1,NaN
127,1,0.7,1,0,0,0,1,0.5
128,0,0.7,0,0,1,0,1,NaN
129,0,0.3,0,0,1,0,0,NaN
130,1,0.7,0,0,0,0,1,1
131,0,0.3,0,0,0,0,1,NaN
132,1,0.7,0,0,1,0,0,0.5
133,0,0.7,0,0,0,0,1,NaN
134,0,0.7,0,0,1,0,1,NaN
135,0,0.7,0,0,1,0,0,NaN
136,1,0.7,0,0,1,0,1,0.5
137,0,0.7,0,0,0,0,0,NaN
138,1,0.7,1,0,1,0,0,1
139,0,0.3,1,0,1,0,0,NaN
140,0,0.7,1,0,0,0,1,NaN
141,0,0.3,1,0,0,0,1,NaN
142,0,0.7,1,0,0,0,0,NaN
143,1,0.7,0,0,1,0,1,0.5
144,0,0.3,0,0,1,0,1,NaN
145,1,0.7,0,0,0,0,1,0.5
146,0,0.3,1,0,1,0,0,NaN
147,1,0.7,1,0,0,0,1,0
148,0,0.7,1,0,1,0,1,NaN
149,0,0.7,1,0,1,0,1,NaN
150,0,0.3,1,0,1,0,0,NaN
151,0,0.7,1,0,1,0,1,NaN
152,0,0.7,1,0,1,0,1,NaN
153,0,0.3,1,0,1,0,1,NaN
154,1,0.7,0,0,1,0,1,1
155,0,0.3,0,0,1,0,0,NaN
156,1,0.7,0,0,1,0,1,1
157,0,0.7,0,0,1,0,1,NaN
158,0,0.7,0,0,1,0,0,NaN
159,0,0.3,0,0,1,0,1,NaN
160,0,0.7,0,0,1,0,0,NaN
161,0,0.7,0,0,1,0,1,NaN
162,0,0.7,0,0,1,0,1,NaN
163,0,0.7,0,0,1,0,1,NaN
164,0,0.7,0,0,1,0,0,NaN
165,0,0.7,0,0,1,0,0,NaN
166,0,0.3,0,0,0,0,0,NaN
167,0,0.7,0,0,1,0,0,NaN
168,1,0.7,0,0,0,0,1,0.5
169,0,0.3,0,0,0,0,0,NaN
170,1,0.7,1,0,0,0,1,0
171,0,0.3,1,0,1,0,0,NaN
172,0,0.7,1,0,1,0,1,NaN
173,0,0.7,1,0,1,0,0,NaN
174,0,0.7,1,0,1,0,0,NaN
175,0,0.3,1,0,0,0,1,NaN
176,1,0.7,0,0,0,0,1,0.5
177,0,0.3,0,0,0,0,0,NaN
178,0,0.7,0,0,0,0,0,NaN
179,0,0.3,1,0,1,0,0,NaN
180,1,0.7,1,0,0,0,1,0
181,0,0.3,1,0,1,0,0,NaN
182,0,0.7,1,0,1,0,1,NaN
183,1,0.7,1,0,1,0,1,0.5
184,0,0.7,1,0,1,0,1,NaN
185,0,0.7,1,0,1,0,1,NaN
186,0,0.3,1,0,1,0,1,NaN
187,1,0.7,1,0,1,0,1,0.5
188,0,0.7,1,0,1,0,1,NaN
189,0,0.7,1,0,1,0,1,NaN
190,0,0.3,1,0,1,0,0,NaN
191,1,0.7,1,0,1,0,1,0.5
192,0,0.3,1,0,1,0,0,NaN
193,0,0.7,1,0,1,0,1,NaN
194,0,0.7,1,0,1,0,1,NaN
195,0,0.3,1,0,0,0,1,NaN
196,1,0.7,1,0,0,0,1,0
197,0,0.7,1,0,1,0,1,NaN
198,1,0.7,1,0,1,0,1,0.5
199,0,0.3,1,0,0,0,1,NaN
200,0,0.7,1,0,1,0,0,NaN
