Trial_Number,Flex0_or_Spec1,Transition_Prob,First_Choice,RT1,Second_Choice,RT2,Reward,Winning_Resource,p1,p2,p3,p4
1,0,0.7,1,0.752389821223915,0,0.839961722493172,1,NaN,0.531919596224714,0.719335890378276,0.344187552104386,0.664889255619656
2,0,0.7,1,0.529435098171234,0,0.586462985724211,0,NaN,0.569381379268271,0.702858731196351,0.363412426461032,0.679570554639722
3,0,0.7,1,0.398126902990043,0,0.995690216310322,1,NaN,0.54386779733311,0.71074027928538,0.384353260658933,0.648420965686764
4,0,0.3,1,0.391497858799994,0,0.9734952962026,0,NaN,0.560083149775584,0.735569813199463,0.368691186556481,0.655360483099747
5,0,0.7,1,0.354071533307433,0,0.625513667240739,0,NaN,0.584881062110463,0.74233315972829,0.410021820923065,0.603439749268929
6,0,0.7,1,0.579984272830188,0,0.562674499116838,0,NaN,0.57868545999896,0.734488173401723,0.421920025938769,0.594815040186146
7,0,0.7,1,0.368015467189252,1,0.462712685577571,0,NaN,0.553626257747994,0.748748132989238,0.464469146839559,0.616043064001698
8,0,0.7,1,0.359852627851069,1,0.455405945889652,0,NaN,0.540102993599756,0.73013853628579,0.473727951892886,0.599788135503406
9,0,0.3,1,0.440457391552627,0,0.820597731508315,1,NaN,0.459718321390038,0.731385894289478,0.487212381696581,0.606187118570611
10,0,0.7,1,0.59889183845371,0,0.524461201392114,1,NaN,0.431548253813522,0.716234124394389,0.490366721071152,0.607040678194663
11,1,0.7,1,0.290839935652912,1,1.11681848112494,1,0.5,0.40622915930233,0.649041405585595,0.493928178148752,0.605187830671516
12,0,0.7,1,0.859488724730909,0,1.71893096156418,1,NaN,0.474043370171425,0.666551035269519,0.522104279128164,0.609312613751562
13,0,0.3,1,0.525474576279521,0,0.814163694158196,0,NaN,0.491784877929281,0.640487463135471,0.506045240779944,0.566801132428283
14,0,0.7,1,0.329321594908834,0,0.610733254812658,1,NaN,0.484079217757887,0.624093517605319,0.515742712809815,0.567211291873019
15,0,0.3,1,0.453393083065748,0,0.784574191085994,1,NaN,0.467661247112004,0.646687703621979,0.515743210230845,0.576458429021498
16,1,0.7,0,1.5563506456092,1,1.76389254070818,1,0.5,0.450774378216922,0.618021707533857,0.522110187275931,0.524022708370424
17,0,0.7,1,0.528977463953197,0,0.697889784350991,1,NaN,0.467462024743667,0.622178244562102,0.513701717633115,0.498319224197881
18,0,0.3,1,0.473016682080925,0,1.17182475328445,0,NaN,0.509449487817824,0.643609879484904,0.514061370602039,0.485822636792303
19,0,0.7,1,0.416236930526793,0,0.741064298897982,0,NaN,0.53030547353379,0.677738172189162,0.494163164247981,0.514087541782165
20,0,0.3,1,0.354738060384989,0,1.0582392886281,1,NaN,0.532284314281558,0.712922050957161,0.487374849864966,0.506370130089903
21,0,0.7,1,0.347465130500495,0,0.619447307661176,1,NaN,0.547242647397906,0.685738621329602,0.489089065834282,0.49234989881733
22,1,0.7,1,0.726017638109624,1,0.462776681408286,1,0,0.552429784955844,0.706495392135476,0.452091689093837,0.507439818377409
23,0,0.7,1,0.46378190536052,0,0.739314063452184,1,NaN,0.528793912542608,0.704745193564547,0.416035764245585,0.526665975293917
24,0,0.7,1,0.649194386787713,0,0.676610433496535,0,NaN,0.504710965554964,0.687510242729453,0.405382597937798,0.556163949753931
25,0,0.3,1,0.693233757279813,0,0.807167276740074,0,NaN,0.533131708798801,0.714650870314766,0.371258801587582,0.512347675160706
26,1,0.7,1,0.802332240156829,0,0.383773634210229,1,1,0.54082660232739,0.673361936734735,0.373531221354283,0.507051362847144
27,0,0.7,1,0.467579719610512,0,0.726251889020205,0,NaN,0.563567800030135,0.67663297537637,0.361456966978792,0.539073788795616
28,0,0.3,1,0.372823336161673,0,1.29167188610882,1,NaN,0.586682191330654,0.698293364360398,0.430921276501757,0.527602384957885
29,0,0.7,1,0.363428870216012,0,0.762918408960104,0,NaN,0.58851846065062,0.695928917202121,0.412744769763958,0.527829863409623
30,0,0.3,1,0.392166499048471,0,0.742209892719984,1,NaN,0.60975616358971,0.722034746954035,0.389445476081919,0.509312358268917
31,0,0.7,1,0.403950258158147,0,0.657269383780658,0,NaN,0.628231445131041,0.720873779566759,0.369805918686659,0.472480523623203
32,1,0.7,1,0.44246753770858,1,1.00670058745891,0,0.5,0.598412325156035,0.690050944895944,0.350624787823399,0.463332276758852
33,0,0.3,1,0.433726618997753,0,0.869824720546603,1,NaN,0.621692569369057,0.727114737027082,0.371880015170362,0.442686448398826
34,1,0.7,1,0.694216642528772,0,0.38455577660352,1,1,0.608023596812951,0.710403277632907,0.379788554806181,0.430810638491028
35,0,0.7,1,0.404377100989223,0,0.737673102878034,1,NaN,0.592458098828983,0.668939716311116,0.395321123568261,0.407664993833621
36,0,0.7,1,0.455502543598413,0,0.61888371873647,1,NaN,0.624872605003714,0.688522927845399,0.379413494457088,0.40324567760144
37,0,0.3,1,0.445518528111279,0,0.92961863335222,0,NaN,0.628801958888969,0.690806270290359,0.348545984433305,0.429960186685994
38,0,0.7,1,0.35207527410239,0,0.527480797842145,0,NaN,0.655425001974502,0.688707345710792,0.439191738437897,0.429018334850084
39,1,0.7,0,0.837855281308293,1,0.346078948117793,1,0,0.654605310522059,0.69738095195237,0.455882282982103,0.432960316316407
40,0,0.3,1,0.495783342979848,0,0.674059036187828,1,NaN,0.677097081890225,0.708424627222421,0.497550548163001,0.441851324404565
41,0,0.7,1,0.330289990641177,0,0.667193629778922,0,NaN,0.650219287444745,0.695472069172856,0.501041448141574,0.422161961417313
42,0,0.3,1,0.459488120861351,0,0.775036639533937,1,NaN,0.676220208121444,0.705597100922739,0.445343775228621,0.425983411316394
43,1,0.7,0,0.81152113340795,1,0.456873935647309,1,0,0.643898651465642,0.681626915204322,0.45030900582345,0.408690271475753
44,0,0.7,1,0.490255215205252,0,0.444420631043613,0,NaN,0.631016567242828,0.680639693908912,0.453811617220107,0.394796398245372
45,0,0.3,1,0.62996472697705,0,1.0026344107464,1,NaN,0.65278621636415,0.689317766234933,0.475665986746593,0.37983126351413
46,1,0.7,1,0.414025438018143,1,0.843313677236438,0,1,0.678801599579432,0.634098723837569,0.495008568127093,0.346764865272652
47,0,0.3,1,0.5332594756037,0,0.909243682399392,1,NaN,0.701317183862269,0.6817247562042,0.467329219451833,0.349973540120527
48,1,0.7,0,1.07647006493062,1,0.351144008338451,0,0.5,0.710303827624016,0.672003097392377,0.535140234397912,0.325634494536749
49,0,0.7,1,0.492501422762871,1,1.35858658887446,0,NaN,0.726739693464926,0.629235115543731,0.524285367449909,0.345856538859112
50,0,0.7,1,0.451634092256427,0,0.695191075094044,1,NaN,0.723878937986328,0.615367863329971,0.526553229359517,0.328649883668921
51,0,0.7,1,0.391298021189868,0,0.613096285611391,0,NaN,0.734367403193932,0.581491251644364,0.540785112041526,0.355588878936042
52,1,0.7,1,0.45625480171293,1,0.459570531733334,0,0,0.719080103304131,0.564232420175748,0.52730421440187,0.334806008254874
53,0,0.7,1,0.604773153550923,0,0.938312461599708,1,NaN,0.734866410689485,0.525811924533024,0.55941776009245,0.299566652215813
54,1,0.7,1,0.96792128495872,1,0.334883833304048,1,0.5,0.713713647457021,0.524270180982116,0.552735633824136,0.314378121735388
55,0,0.3,1,0.500594229437411,0,0.797999513335526,0,NaN,0.71800864518664,0.505860788297976,0.534788505644781,0.33580993091278
56,1,0.7,1,0.633159708231688,0,0.381346004083753,1,0.5,0.745149803211412,0.498271855899731,0.502801875418341,0.374644161296875
57,0,0.3,1,0.481084736064076,0,0.715188992209733,1,NaN,0.711079800806721,0.50660213022976,0.50804495724981,0.346932542264938
58,0,0.7,1,0.505858825519681,0,1.46713687852025,0,NaN,0.708819779028113,0.531224899270739,0.519169580278331,0.341026570491331
59,0,0.7,1,0.459779726341367,0,0.719135629013181,0,NaN,0.711528916622956,0.511456844635535,0.497288489382233,0.311613752494061
60,0,0.7,1,0.301399012096226,0,0.542937095277011,1,NaN,0.707714882543454,0.55384064286562,0.520621359339795,0.323512158464889
61,0,0.3,1,0.380657741799951,0,0.667591190896928,0,NaN,0.722156273373506,0.534734593237588,0.538625320995787,0.356225044102974
62,1,0.7,0,0.995983934029937,1,0.362158906646073,1,0,0.724914573013395,0.54915066390101,0.528608603500393,0.349599872902379
63,0,0.3,1,0.471308707259595,0,0.953977954573929,1,NaN,0.701977825683605,0.584378737019892,0.553990030223826,0.316839690931195
64,0,0.7,1,0.383323547430336,0,0.63790297601372,0,NaN,0.662498790264958,0.616300461783929,0.57303103987494,0.322774644289277
65,0,0.7,1,0.551274717785418,0,0.478518245741725,0,NaN,0.674731636019417,0.664207221662208,0.599989999788219,0.309979937227759
66,1,0.7,0,1.50288481079042,0,0.392423992976546,1,1,0.671544880024461,0.642915416289735,0.5913426403201,0.300120742878123
67,0,0.3,1,0.620342953130603,0,0.760907961055636,0,NaN,0.706414064452421,0.651734539722713,0.585680694518268,0.303237805205492
68,1,0.7,0,0.982133882120252,1,0.50814940687269,1,0,0.733021918456045,0.693546772780918,0.595862667905526,0.306824593991744
69,0,0.3,1,0.675271342508495,0,0.798224104568362,1,NaN,0.716101796537674,0.651232688311593,0.567882344690612,0.304432021379698
70,1,0.7,1,0.801236757077277,0,0.534765802323818,1,0.5,0.688974498162193,0.647205408310472,0.578825980814289,0.294440757041138
71,0,0.3,1,0.404624331742525,0,0.609905228018761,0,NaN,0.686293667392219,0.651570658173924,0.613987325615319,0.257433474355745
72,1,0.7,1,1.8131696395576,1,0.554618822410703,1,0.5,0.669731557713119,0.642067803884698,0.636582829096147,0.265665474969155
73,0,0.3,1,0.527834587730467,0,0.544652616605163,1,NaN,0.626621559731261,0.632166795401197,0.651171509674954,0.291626785320386
74,1,0.7,0,1.9662347426638,0,0.357095053419471,1,0.5,0.675713807312274,0.628903849140631,0.695035232036333,0.276139751180624
75,0,0.7,1,0.410329958423972,0,0.631768092513084,0,NaN,0.694312926807332,0.624098769889983,0.699715068103487,0.267193338427146
76,0,0.7,1,0.529351479373872,0,0.554400570690632,1,NaN,0.664488645048651,0.603416628256442,0.696269704822672,0.291486059359405
77,1,0.7,0,1.33539640624076,0,0.295583203434944,1,0.5,0.684180168155791,0.563186145128382,0.700780191653656,0.29451923522907
78,0,0.7,1,0.383352225646377,0,0.517207289114594,1,NaN,0.693152689139255,0.552046737787272,0.701320614529567,0.286139404063483
79,1,0.7,1,1.09192183427513,1,0.293957940302789,1,0.5,0.671041731640855,0.58693674762865,0.664520548787224,0.329833879275731
80,0,0.3,1,0.397654175758362,0,0.627362918108702,1,NaN,0.684750672667776,0.578099167681932,0.69042028673947,0.354772573678328
81,0,0.7,1,0.325715769082308,0,0.646539750508964,1,NaN,0.693677671033898,0.562340448962232,0.704215806964657,0.329630906782768
82,0,0.7,1,0.448381152004004,0,0.475882628001273,1,NaN,0.678673513212938,0.59112652704102,0.691523372732752,0.358711684817203
83,0,0.3,1,0.340255894698203,0,0.532361416146159,1,NaN,0.711387394858512,0.614721384306331,0.683481716719885,0.360360402698071
84,0,0.7,1,0.314063625410199,0,0.547697871923447,0,NaN,0.724978615781493,0.629331525993116,0.68161625947837,0.398954830086905
85,0,0.3,1,0.401646092534065,0,0.558963020332158,1,NaN,0.748907653823074,0.67909376086664,0.707302518397295,0.41101204158936
86,0,0.7,1,0.347970458678901,0,0.491546309553087,1,NaN,0.721648204064931,0.655156340954872,0.713945926960122,0.398212200510804
87,0,0.3,1,0.331259895116091,0,0.883451690897346,0,NaN,0.725682654528577,0.623697328523987,0.737152668125014,0.364314440181347
88,1,0.7,1,0.955275085754693,0,0.346629557199776,1,0.5,0.730807551774636,0.589178170822807,0.73028071625959,0.414886879660459
89,0,0.7,1,0.488446114584804,1,0.466697357594967,0,NaN,0.727785301883601,0.572557078030618,0.71115459299432,0.393902281565196
90,0,0.7,1,0.355152828618884,0,0.754553920589387,1,NaN,0.743897211165662,0.579928291072279,0.732957593928892,0.403553398048421
91,0,0.7,1,0.391569703817368,0,0.549821821972728,0,NaN,0.721121569995377,0.613707532343243,0.732246182474628,0.397560787027463
92,1,0.7,1,0.907498274929821,1,0.340364567004144,1,1,0.681525947322383,0.60329143815341,0.744219051922605,0.384567185475062
93,0,0.3,1,0.386227225884795,0,0.400236665271223,0,NaN,0.70574477354453,0.583663436460549,0.719834887359669,0.366184856172068
94,1,0.7,1,0.307338888756931,0,0.372942875139415,1,0.5,0.748229738066045,0.601542652256959,0.715229245699303,0.390100999686496
95,0,0.7,1,0.377234547398984,0,0.672052815556526,1,NaN,0.731406131622119,0.623175777876189,0.706191449671668,0.395789652678676
96,0,0.3,1,0.368596565909684,0,0.711335936561227,1,NaN,0.718844852808108,0.650507457205203,0.677259519962979,0.356588932612934
97,0,0.7,1,0.398293232545257,0,0.5959108825773,1,NaN,0.715059272739901,0.66674829474884,0.677096534015795,0.342538776607668
98,0,0.7,1,0.375608681701124,0,0.494656767696142,1,NaN,0.728997166400714,0.66953504778385,0.667308392929903,0.295193339871764
99,0,0.3,1,0.430537674576044,0,0.698992813937366,1,NaN,0.741919902500708,0.675135965755579,0.648593000829028,0.275016023404556
100,1,0.7,1,0.370366122573614,1,0.457127504982054,0,0,0.748220731330066,0.621602073688918,0.635538845804513,0.298100797510348
101,0,0.3,1,0.418170101009309,0,0.550839422270656,1,NaN,0.723592099919188,0.60338519256255,0.61577829042887,0.277841822532785
102,0,0.7,1,0.396118567325175,0,0.578329124487936,1,NaN,0.67565493626562,0.593514352498129,0.613560288298766,0.281104397709514
103,0,0.3,1,0.366734636947513,0,0.661573733203113,1,NaN,0.694180968753353,0.557379315139504,0.625595145481522,0.293965147462937
104,0,0.7,1,0.398591479286551,0,0.684139046818018,0,NaN,0.685658671449367,0.578277571525463,0.628532038902449,0.307063889711165
105,0,0.7,1,0.395871639251709,0,0.610086048021913,1,NaN,0.643911965739166,0.608682338789259,0.625374342629878,0.293808846781034
106,0,0.7,1,0.468931791372597,0,0.751904717646539,1,NaN,0.619387441351576,0.620695804697447,0.641635094755674,0.288653625053335
107,0,0.7,1,0.78102058917284,0,0.723171918652952,1,NaN,0.649292250643595,0.628679025546652,0.602935172951925,0.268505334047364
108,0,0.7,1,0.577644787728786,0,0.424509048461914,1,NaN,0.640635408447266,0.668372694593545,0.613818682055995,0.292207972803494
109,0,0.7,1,0.530877728946507,0,0.587413872592151,0,NaN,0.639450069401387,0.609594213801308,0.597525495331618,0.283863020675198
110,1,0.7,1,0.351353505626321,1,0.367002999410033,0,1,0.618488011430634,0.611137542601395,0.579255423478181,0.300496741064443
111,0,0.7,1,0.507448467426002,0,0.532807880081236,0,NaN,0.625419929962637,0.645338066413817,0.578079097129311,0.298211288309602
112,0,0.3,1,0.474479540251195,0,0.589408924803138,1,NaN,0.604397141280121,0.616891830291462,0.557413971223392,0.310348889887376
113,0,0.7,1,0.433258720673621,0,0.693175797350705,0,NaN,0.574183338763225,0.615350000558381,0.566601999759088,0.325378450579642
114,0,0.7,1,0.5490318313241,0,0.644678425975144,1,NaN,0.572703277455372,0.604198435317785,0.536318568809517,0.298729686498473
115,0,0.3,1,0.45430442597717,0,1.19377032946795,0,NaN,0.566158469182467,0.611376288447582,0.581064051169353,0.302728643486076
116,0,0.7,1,0.405466546304524,0,0.571209543384612,1,NaN,0.559550566840315,0.624440168897317,0.567324862800777,0.319874110831067
117,0,0.7,1,0.383587380871177,0,0.613789075054228,0,NaN,0.513963077013602,0.618769192343289,0.547328839395739,0.305886497477109
118,0,0.3,1,0.592806461267173,0,0.63103273883462,0,NaN,0.508238548604692,0.594036746978197,0.543438528863064,0.303988055187795
119,1,0.7,1,0.657496690750122,0,0.444828757084906,1,1,0.535575560410053,0.61475604498662,0.519498189230898,0.308023483538469
120,0,0.3,1,0.542728503234684,0,0.774806011468172,0,NaN,0.478156124244381,0.6180495199606,0.500064720885192,0.305159599487441
121,1,0.7,0,0.859138255007565,0,0.478496510535479,1,0.5,0.467085704153124,0.61102016244688,0.501399274656234,0.332395486202399
122,0,0.3,1,0.511179870925844,0,0.416667396202683,0,NaN,0.512614577014989,0.585262087089594,0.48573928800028,0.343900619856184
123,0,0.7,1,0.371131359599531,0,0.641967642121017,1,NaN,0.500310696662122,0.61830703868008,0.46146559551645,0.402097370296186
124,1,0.7,1,1.29968047142029,1,0.397092699073255,1,0.5,0.477318035973902,0.62230313849757,0.440289718891107,0.385818682500828
125,0,0.3,0,0.392968565225601,0,1.10300254076719,1,NaN,0.503177658399435,0.63717609174682,0.443398343736555,0.338489478055704
126,0,0.7,1,0.397946082986891,0,0.555397341959178,0,NaN,0.526929233593097,0.61678351860355,0.479107102500461,0.372803949333771
127,0,0.7,1,0.328868791460991,0,0.489507183432579,1,NaN,0.509999032558465,0.593208639447031,0.51491195761088,0.34665566656432
128,0,0.7,1,0.377362842671573,0,0.400206176564097,1,NaN,0.500119879535265,0.597921525506567,0.548089705593246,0.341743286893332
129,1,0.7,1,0.395282994955778,0,0.345460720360279,1,1,0.518572411625684,0.620395686518509,0.510752527913596,0.350937881260429
130,0,0.7,1,0.599270382896066,0,0.492620962671936,1,NaN,0.531467125534547,0.633686228120994,0.519834044826731,0.317082786679399
131,0,0.7,1,0.452497740276158,0,0.415846614167094,0,NaN,0.527172504778758,0.640921974972581,0.524707690513427,0.314320605363539
132,0,0.3,1,0.426425916142762,0,0.663191148079932,0,NaN,0.503625028541756,0.633388167896584,0.56113721010987,0.362063473879765
133,0,0.7,1,0.384368014521897,0,0.630463112145662,1,NaN,0.566223622228224,0.643232869570969,0.556798399017733,0.359138739773698
134,0,0.3,1,0.416839763522148,0,0.44559490121901,1,NaN,0.552639877690124,0.631258278393527,0.566071881186274,0.388948856695376
135,1,0.7,1,0.71948670130223,0,0.448307193815708,1,1,0.608863536845949,0.641336582740114,0.614730101217307,0.388525206553485
136,0,0.7,1,0.441663358360529,0,0.461455702781677,1,NaN,0.621950970219191,0.671552129514312,0.605562039158858,0.413166865653495
137,0,0.7,1,0.45455286372453,0,0.513994798995554,1,NaN,0.622571743004652,0.710743594219042,0.621004928833618,0.369464793884069
138,0,0.3,1,0.449381846934557,0,0.404686214402318,1,NaN,0.608823824993827,0.707882789757685,0.624002270174058,0.335035343545016
139,0,0.7,1,0.463941896334291,0,0.515232764184475,1,NaN,0.65861078804482,0.712049191000669,0.607935060152555,0.324889201365128
140,0,0.7,1,0.385627412237227,0,0.463685609400272,0,NaN,0.656716822066727,0.649573622260491,0.622285982789828,0.348008431707044
141,0,0.3,1,0.448933269828558,0,0.524557498283684,1,NaN,0.667587777927412,0.642349917346216,0.599305661277574,0.347067075751097
142,0,0.7,1,0.346772642806172,0,0.530878635123372,0,NaN,0.613796534874023,0.627902836524086,0.589784164267291,0.326149151903631
143,0,0.3,1,0.42537722364068,0,0.534383636899292,1,NaN,0.603883500239926,0.660665649101016,0.607119812133033,0.392550986760342
144,1,0.7,1,0.492238494567573,0,0.334303339011967,0,0.5,0.598941861465271,0.653171475661823,0.634723516853503,0.364609018502451
145,0,0.3,1,0.420038670301437,0,0.640935552306473,1,NaN,0.618783685957353,0.65416405950331,0.655324109088049,0.390954953346021
146,1,0.7,0,0.786687877960503,0,0.296589634381235,1,1,0.664425269280962,0.663886543935225,0.664094310673668,0.402903930690427
147,0,0.7,1,1.84853087924421,0,0.563831864856184,0,NaN,0.644196282244959,0.653316132799895,0.717368018110438,0.4014273649647
148,0,0.7,1,0.569230490364134,0,0.431808240711689,1,NaN,0.618965151201079,0.647384908809248,0.700059832366583,0.406615143756618
149,0,0.7,1,0.3936996916309,0,0.431773223914206,1,NaN,0.625813189558308,0.632692890036082,0.670847121259017,0.378312092957608
150,0,0.7,1,0.52171509899199,0,0.434323413297534,0,NaN,0.631788496499792,0.623823300447901,0.732406969538222,0.377153091791975
151,0,0.3,1,0.372299894690514,0,0.539060492999852,0,NaN,0.669814605110087,0.578512241984621,0.725739848030645,0.397588234898068
152,1,0.7,0,0.840736620128155,1,0.308890797197819,0,1,0.653430594236725,0.592680786676259,0.729972966809809,0.406832251766032
153,0,0.7,1,0.403864225372672,0,0.553574355319142,1,NaN,0.644064035718035,0.630394603459402,0.730814463783095,0.459275761757259
154,0,0.7,1,0.422732850536704,0,0.627441706135869,0,NaN,0.618425176958455,0.610904912761051,0.668672708838497,0.456997498345271
155,1,0.7,1,0.733912720344961,1,0.341895647346973,1,1,0.618390687971008,0.596975261060882,0.703209719007337,0.482800220128758
156,0,0.3,1,0.419688803143799,0,0.352664521895349,1,NaN,0.639138287382616,0.549828726715066,0.739192907012028,0.498292828078359
157,1,0.7,1,0.669805701822042,1,0.344404178671539,1,1,0.661801818448537,0.573488987177193,0.703356314375161,0.508464165825837
158,0,0.3,1,0.494177097454667,0,0.416499858722091,1,NaN,0.667391187609605,0.590672854621182,0.684540281127104,0.534022623697789
159,0,0.7,1,0.411177304573357,0,0.328457645140588,0,NaN,0.652207171552617,0.568264628002469,0.693790231076407,0.522717218507127
160,0,0.3,1,0.414912027306855,0,0.379492829553783,1,NaN,0.691936145354597,0.558853949513844,0.707561392234341,0.572723764930271
161,0,0.7,1,0.416250816546381,0,0.460922904312611,1,NaN,0.701477489548353,0.564192187170494,0.688692499031322,0.5905336862071
162,0,0.7,1,0.39005945250392,0,0.444528095424175,0,NaN,0.712754768653682,0.583664251294595,0.748056263762518,0.601128276033463
163,0,0.3,1,0.437951275147498,0,0.362106080166996,1,NaN,0.735535554792874,0.600841072033966,0.738555939969231,0.595562277356176
164,0,0.7,1,0.487299615517259,0,0.433362262323499,1,NaN,0.737866924824906,0.604096919307612,0.724535829797564,0.575938888578076
165,0,0.3,1,0.43526192381978,0,0.487136002629995,0,NaN,0.675160880532125,0.584064475673801,0.741146818951201,0.586774424388973
166,1,0.7,0,0.86316397972405,1,0.370548451319337,1,0,0.704243762427789,0.583138106297549,0.718818978471839,0.570696772421189
167,0,0.3,1,0.422962573356926,0,0.627882735803723,0,NaN,0.703382604891958,0.615263071112356,0.707987695440227,0.549892249618634
168,0,0.7,1,0.350304812192917,0,0.517680921591818,1,NaN,0.702839693930225,0.584342616530404,0.721187525383944,0.571384729176759
169,1,0.7,0,1.65202984306961,0,0.271630801260471,1,0.5,0.714537904522228,0.581576893713732,0.715548680302365,0.575837616964046
170,0,0.3,1,0.512112645432353,0,0.561596826650202,1,NaN,0.745612203756382,0.569717435041041,0.713016213855988,0.580967519749353
171,0,0.7,1,0.398720075376332,0,0.5077222622931,1,NaN,0.748530138168918,0.562917039568825,0.675527691337698,0.552396315922646
172,1,0.7,0,0.755138339474797,1,0.306601121090353,1,0.5,0.732460226661389,0.568120580282017,0.679696534429242,0.571088544331905
173,0,0.3,1,0.417617679573596,0,0.502632147632539,1,NaN,0.714519048035511,0.589601346095318,0.727995134137155,0.608993407628063
174,1,0.7,1,0.725674413144588,0,0.302528605796397,1,0,0.726137973960382,0.600526274280314,0.717854075405938,0.640823067439757
175,0,0.7,1,0.437701629474759,0,0.465711753815413,1,NaN,0.704461919985167,0.560173405460401,0.744506650194552,0.651776861063903
176,0,0.7,1,0.482770674861968,0,0.636431666091084,1,NaN,0.653898818832276,0.54120469464934,0.733554217677398,0.635160952217242
177,1,0.7,0,0.758374072611332,1,0.373727131634951,1,0.5,0.684035830453223,0.53382187588502,0.689598191392459,0.595045723360376
178,0,0.7,1,0.362184565514326,0,0.713404644280672,0,NaN,0.741853301869012,0.546226063182841,0.668537326419824,0.576195707552368
179,0,0.3,1,0.34473170619458,0,0.672767641022801,1,NaN,0.727356247738671,0.565597716521981,0.684472907069616,0.560795869185642
180,1,0.7,0,0.761269298382103,0,0.328783965669572,1,1,0.671392202138759,0.585124497105662,0.656897072808299,0.530641493963357
181,0,0.7,1,0.447252161800861,0,0.571295576170087,1,NaN,0.694589167065531,0.612262520331415,0.649386288327152,0.51099736572246
182,1,0.7,0,0.599926645867527,1,0.381188729777932,1,0,0.677368481291969,0.618379692206325,0.6392832518501,0.557116781872228
183,0,0.7,1,0.392929623834789,0,0.503215357661247,1,NaN,0.671143088555373,0.60294250923549,0.685322041946497,0.508112021809078
184,1,0.7,1,0.998292628675699,0,0.443601961247623,1,0.5,0.704010745145221,0.575689546948808,0.727135023731052,0.522538623561222
185,0,0.3,1,0.365582403726876,0,0.428040613420308,1,NaN,0.741049873225712,0.588505254365304,0.736101312869985,0.556123551677679
186,1,0.7,0,0.854814584366977,0,0.274302644655108,1,0.5,0.721951312262398,0.588021970797631,0.730884327506077,0.586509322173845
187,0,0.3,1,0.402665805071592,0,0.479936426505446,1,NaN,0.706973965712635,0.575539482469991,0.744053505207623,0.570819099337492
188,1,0.7,1,0.640402452088892,0,0.41285418625921,1,0,0.710277258569705,0.547864986212784,0.728770871114858,0.610256271179423
189,0,0.3,1,0.399777522310615,0,0.55739330034703,0,NaN,0.687051134314011,0.539727396083562,0.737547479655097,0.633420556420595
190,1,0.7,1,1.07461115531623,1,0.317184951156378,1,1,0.669223047864118,0.546371471074233,0.715116548462509,0.650964151648448
191,0,0.3,0,0.411666633561254,0,0.665663757361472,1,NaN,0.6654962212758,0.592598375738732,0.710124083146188,0.613368221229387
192,0,0.7,1,0.361497210338712,0,0.545188132673502,1,NaN,0.672312538062976,0.584964794383243,0.714652965177086,0.603103387278502
193,1,0.7,0,0.798898781649768,1,0.364428660832345,1,0.5,0.652360598167093,0.589559914396597,0.722960016361529,0.602956004447688
194,0,0.7,1,0.513389249332249,0,0.506907819770277,0,NaN,0.670388780676877,0.582219431412896,0.739221816587169,0.575708485505752
195,1,0.7,0,0.745985670946538,0,0.282211612910032,1,0.5,0.673051040380272,0.593361661873527,0.74347956519815,0.605775330571097
196,0,0.7,1,0.450061657465994,0,0.477418234571815,1,NaN,0.694860710893431,0.5767435846874,0.723611255959242,0.612071360498872
197,0,0.7,1,0.373922441154718,0,0.540701453574002,0,NaN,0.681422297245341,0.573505046800818,0.727962574022049,0.610098087101346
198,0,0.3,1,0.458458445966244,0,0.445932089351118,1,NaN,0.633688475121529,0.553861278707911,0.725682240631975,0.616850519209366
199,1,0.7,1,0.32772259414196,1,0.264571595005691,1,1,0.668189929049545,0.541195198843308,0.719615905815412,0.598836277226861
200,0,0.3,1,0.489064342342317,0,0.4030029932037,1,NaN,0.655545055748777,0.554922658591862,0.731425834683461,0.618480658809977
