Trial_Number,Flex0_or_Spec1,Transition_Prob,First_Choice,RT1,Second_Choice,RT2,Reward,Winning_Resource,p1,p2,p3,p4
1,0,0.7,1,1.58451624705049,1,0.582631997109274,1,NaN,0.708805844248938,0.621761556192935,0.364876952229159,0.662285374065353
2,0,0.7,1,0.914411221703631,1,0.579347992774274,1,NaN,0.703701569314073,0.62157290820878,0.410867071930318,0.632671413025658
3,0,0.7,1,0.535762713712757,1,0.472036909806775,1,NaN,0.689077842490868,0.629163517256506,0.42471855240823,0.628199512368948
4,0,0.7,1,0.696417208317143,1,0.642533455851662,1,NaN,0.698684102470761,0.654702185577258,0.424623808639862,0.585953515189699
5,0,0.3,1,0.572393293252389,1,1.6432265410549,1,NaN,0.663801751218742,0.66368668807097,0.453146098031141,0.587666986339247
6,0,0.7,1,0.524906994964113,1,0.589746383942838,1,NaN,0.615767961017912,0.657277023323867,0.458528388124887,0.582757862844785
7,0,0.7,1,0.689625818515196,1,1.0916336525479,1,NaN,0.631104271455259,0.658074200744779,0.438019029910111,0.574402228552157
8,0,0.3,1,0.65944672722253,1,1.2548615580381,1,NaN,0.669809594652512,0.654091759834882,0.436129452984528,0.539289565916719
9,0,0.7,1,0.712083167811215,1,1.32950647261896,1,NaN,0.64527683368277,0.712235145088694,0.447668536108769,0.534855336620433
10,0,0.7,1,0.863943087322696,1,0.691483202346717,0,NaN,0.632739047901574,0.739128207012709,0.450808866934299,0.507061744346891
11,1,0.7,1,2.45917257218389,0,1.38258997731464,1,1,0.582451414488293,0.731266555380495,0.381987827357372,0.512699109273542
12,0,0.7,1,0.883088962436887,1,0.676555306148657,1,NaN,0.61475547806565,0.742161527728272,0.410523471658129,0.579334240084941
13,1,0.7,1,0.813049321346625,1,0.354852079435659,1,0.5,0.624571555845554,0.707436655392309,0.448230666233915,0.587586145650275
14,0,0.7,1,0.575617528054863,1,1.11841704892868,0,NaN,0.638560937424476,0.661776768089581,0.410273221570603,0.566767763836718
15,0,0.3,1,0.628978749817179,0,1.54583599478792,1,NaN,0.674073517052268,0.694790181513058,0.392370543659934,0.56975720811832
16,0,0.7,1,1.45549734900851,1,0.898916420446767,0,NaN,0.662803198300395,0.661732171224869,0.414029434095305,0.608831926853878
17,0,0.7,1,0.689983832038706,0,0.956248392561974,0,NaN,0.668046282040377,0.645214640980657,0.350497516411459,0.588058224033207
18,0,0.3,1,0.481211836544389,1,1.47512771966285,0,NaN,0.67090028602343,0.656461561793796,0.38131871127718,0.591190617127606
19,0,0.7,1,0.499910647551587,1,0.469218987149361,0,NaN,0.667684902203464,0.656571250216613,0.407730905598937,0.581584651095919
20,1,0.7,0,1.59780319761194,0,1.59512866148725,1,0,0.669769568463688,0.662970259283388,0.413237237482242,0.582944906746485
21,0,0.7,1,1.49479914415133,1,1.2970063307439,0,NaN,0.672215466324992,0.648866295440121,0.419979074348865,0.587621409228446
22,0,0.3,1,0.441012894523737,1,1.77321503390704,1,NaN,0.704934620799609,0.640911813099914,0.430919820111808,0.601391054521489
23,1,0.7,0,1.26624161867949,0,0.756360324616253,1,0,0.694475602429852,0.614472300278234,0.42353943088443,0.5553634488682
24,0,0.7,1,0.721499285784375,1,0.930257395426452,1,NaN,0.69621897499182,0.569080396657116,0.424686980688307,0.575440066063242
25,1,0.7,1,1.66471671047475,0,1.10761144001299,1,0.5,0.676618654418599,0.590282854006375,0.412364011689475,0.556045595358921
26,0,0.7,1,1.29854826421069,1,1.13205114582524,0,NaN,0.666404631910168,0.614184506525054,0.397591610956745,0.559436755446012
27,0,0.3,1,0.545787696173647,1,1.95400401602819,1,NaN,0.67110137932758,0.61574975690535,0.418891626938181,0.560689239362308
28,0,0.7,1,0.631134981362266,1,0.859314871988317,1,NaN,0.647031362298314,0.592450227439379,0.427041039822586,0.584932973062994
29,1,0.7,0,1.67641282521799,0,2.16698674565123,1,0,0.680700824574967,0.615423582828052,0.427988437760835,0.602617268145071
30,0,0.3,1,1.68371044493688,1,1.61355730208743,1,NaN,0.699258143190848,0.664270492968389,0.443173909302438,0.621223679310094
31,0,0.7,1,0.624757450364996,1,0.821605422002904,0,NaN,0.681748412957567,0.69714810550234,0.423886578745986,0.616254860655076
32,0,0.3,1,0.520223538092978,1,1.47283896878071,0,NaN,0.694893424550785,0.687455372124049,0.439415872674924,0.634197506892407
33,0,0.7,1,0.52137244152982,1,0.65002577938867,1,NaN,0.719457249345997,0.693157660847837,0.406862030076627,0.652265142116335
34,0,0.3,1,0.683207535548718,0,1.30941877439909,1,NaN,0.733483860261909,0.710018149410571,0.395695779419043,0.691765495248243
35,0,0.7,1,0.852612834634783,1,1.20818214859173,0,NaN,0.710760370017282,0.700592594669694,0.392330987383493,0.658129497561422
36,0,0.3,0,0.491186709179601,0,0.429275424095977,0,NaN,0.671480734283964,0.690398416027375,0.386002964258811,0.655410178383657
37,1,0.7,0,1.919809800027,0,1.18458464997093,1,0,0.651664853990427,0.71509725201781,0.388105824317959,0.649649655669691
38,0,0.3,0,1.06020211765281,1,0.959829433420964,1,NaN,0.620818737268762,0.707859561048364,0.374719494367403,0.691265627043044
39,0,0.7,0,0.660809050197713,0,1.24023250956088,0,NaN,0.623773148799308,0.693851470553225,0.357569539742428,0.661030810738532
40,0,0.3,1,0.43424082416459,1,1.47027099148545,1,NaN,0.585427147523308,0.680907792985279,0.350919899104753,0.709026627367161
41,0,0.7,1,0.526867617103562,1,0.519513548366376,1,NaN,0.580608553232112,0.648405751100715,0.347622878360427,0.705917153552798
42,0,0.3,1,0.606000077277713,1,1.46744340910664,1,NaN,0.5597980463164,0.627762603327122,0.361815307242434,0.691712551499672
43,0,0.7,1,0.531937764812028,1,0.996219123597257,0,NaN,0.563687326414161,0.620495665921971,0.375763648331183,0.700585131859748
44,0,0.7,1,0.567779265649733,0,1.23076507430233,1,NaN,0.583834475257266,0.62926096105682,0.379268361769618,0.729252578083617
45,0,0.3,1,0.425236451934325,0,1.43802864349709,1,NaN,0.612803363227307,0.636829794000157,0.326785341001578,0.734419030290378
46,0,0.7,1,0.680173174703668,1,1.61840678547014,1,NaN,0.62175136854641,0.64241695942115,0.350991012698435,0.748327392738083
47,1,0.7,0,1.16490024523227,0,0.595575725594244,1,0,0.560005126544039,0.640871400670978,0.329541404246011,0.730234383007543
48,0,0.7,1,1.6955722843195,1,0.593663100218691,1,NaN,0.530044396698653,0.602223732461727,0.312085727991565,0.716528498175322
49,0,0.7,1,0.541413652324991,1,0.677657722168078,1,NaN,0.508493695645148,0.617999165380872,0.312734932277344,0.717779363537121
50,0,0.7,1,0.542228993421304,1,0.710263517270505,1,NaN,0.511396792805458,0.622971791909288,0.309319920804891,0.67181948913201
51,0,0.7,1,0.437226584530436,1,0.537517161108553,1,NaN,0.542659482989152,0.6560555554134,0.310129276981646,0.690353401328943
52,1,0.7,1,1.00733082502848,1,0.452652862113609,1,0.5,0.537445032550151,0.693518141258069,0.304327069132073,0.723374177853608
53,0,0.7,1,0.565856678673299,1,0.716769039616338,1,NaN,0.55433280290468,0.670805346638053,0.339596337960984,0.683413601122577
54,0,0.7,1,0.579100160473899,1,0.561971658367838,1,NaN,0.560689710878755,0.66230178871369,0.356475570897634,0.749085955708767
55,1,0.7,0,1.44708855914359,1,0.602992884407286,1,1,0.577853172781671,0.677204150418068,0.346019334118955,0.715689635367257
56,0,0.3,1,1.26236686183256,1,1.31383266460034,1,NaN,0.622903311824619,0.675554257772938,0.343422787506732,0.735941133993659
57,1,0.7,0,1.27277189407323,0,0.891647478027153,1,0,0.647092637939847,0.663416236461029,0.3415325873412,0.739362528727825
58,0,0.7,1,0.947463779048121,1,0.451674211311911,1,NaN,0.671576149379736,0.704554847115227,0.335905200974862,0.73612869710276
59,1,0.7,1,0.74877502622985,1,0.428267492250598,1,0.5,0.677096181399332,0.687942658121411,0.331475115282383,0.733500601545467
60,0,0.3,1,0.647272456139035,1,1.17059193582099,0,NaN,0.720502511670285,0.689250552611399,0.382235229979154,0.742309776652839
61,1,0.7,1,0.751170939685835,1,0.542699904966867,1,0.5,0.711190172728194,0.719351325591778,0.380810906931321,0.738143554503976
62,0,0.7,1,0.58045946477796,1,0.931388488745142,1,NaN,0.700654999207866,0.68949109454499,0.357310869007322,0.749141525527442
63,0,0.3,1,0.801171784914914,1,1.31838420586428,1,NaN,0.706178561741132,0.690720432773591,0.317073152109136,0.746814822249755
64,1,0.7,0,1.36491781385848,0,0.795906329658465,1,0,0.70763660344172,0.711644242579538,0.297654040896872,0.726534291541079
65,0,0.3,1,0.719470441843441,1,1.50431668922829,1,NaN,0.722596550735853,0.689149884048832,0.333720578999369,0.707864633881798
66,0,0.7,1,0.583452168059011,1,0.845477920891426,1,NaN,0.745825008989558,0.691402770852179,0.326910433338134,0.738093469463426
67,0,0.3,1,0.775512538930343,1,1.23020964016177,1,NaN,0.745852897343502,0.67482408643121,0.298859332638941,0.735156957787703
68,0,0.7,1,0.528688173239061,1,0.593476848662249,0,NaN,0.719396446423257,0.720305690205805,0.251228497241502,0.746135383306768
69,1,0.7,0,1.5731875036945,1,0.58805985647632,1,1,0.683208853022485,0.703069559486349,0.261900746342479,0.74828615420979
70,0,0.3,1,1.12778849068127,1,1.16061525197438,1,NaN,0.692432645664278,0.667997589861087,0.279502333356876,0.714682768179429
71,0,0.7,0,1.76581719455135,1,0.396463454242621,1,NaN,0.747654206409408,0.67702426681296,0.269226098960726,0.670468293017655
72,0,0.3,0,0.736426276387647,1,1.00058018718119,0,NaN,0.736699738920442,0.678899172140075,0.269045387446889,0.668048366076075
73,1,0.7,1,1.19609964488336,0,1.05019434158021,1,0.5,0.749259421198751,0.692708091869367,0.308848739344239,0.641488841276525
74,0,0.3,1,1.33928392465168,1,1.3553329525821,1,NaN,0.740492927309973,0.716884630973089,0.283351130016356,0.658179361049293
75,1,0.7,1,1.2886391984357,0,0.730905140306277,1,1,0.723458698183979,0.72922509698523,0.259498016479375,0.680033591022027
76,0,0.3,1,0.673233266643365,1,1.49246903756284,1,NaN,0.720104066862567,0.709265707653083,0.270611679104563,0.71869670759291
77,0,0.7,1,0.740390989412845,1,0.780080984710366,1,NaN,0.744579339661187,0.727795837007912,0.301928016114608,0.737548732614659
78,1,0.7,1,0.968445605489251,1,1.0152300644404,1,1,0.739586331689962,0.721966942048146,0.324092346541422,0.700844342987305
79,0,0.3,1,0.625652484181046,1,1.38257337466348,1,NaN,0.731512405878593,0.720749631672823,0.305177621777587,0.696231189328235
80,1,0.7,1,0.754292238052585,1,0.817602371949761,1,1,0.745403195474778,0.737191123429145,0.326853541474746,0.723266279861312
81,0,0.7,1,0.716164401259448,1,0.597091396688484,0,NaN,0.711809590306302,0.730960432389639,0.303703896484504,0.703528931744359
82,0,0.3,0,1.21694955571729,1,2.24545509979362,1,NaN,0.673795966666155,0.749991895214556,0.309701649987234,0.715081157521535
83,1,0.7,1,0.727359719669039,1,0.712196367698198,1,0.5,0.666085796976691,0.725254399059913,0.282732801864893,0.71202801561504
84,0,0.3,0,1.38328608118172,1,1.17346389255545,1,NaN,0.626550749870093,0.70291903506898,0.288552158852102,0.698492449014031
85,1,0.7,0,2.08982637853478,1,0.691895249954541,1,1,0.676421961430058,0.714717892839775,0.31333813872005,0.725932358095468
86,0,0.7,1,1.00380230892188,1,0.729023003426846,0,NaN,0.69112790925127,0.74130146768165,0.297223307607293,0.722502861090045
87,0,0.7,0,0.767567415816302,1,0.758408487999986,0,NaN,0.659023027887441,0.718901583341161,0.271692326436437,0.69588565640963
88,0,0.3,0,0.627566920760728,0,1.58433422162489,1,NaN,0.667074725432035,0.739898802657948,0.285963432263874,0.661146695801698
89,1,0.7,0,1.10822151196044,0,1.11770977600827,1,0,0.652699341228206,0.74501662791,0.2541281123622,0.63695927404117
90,0,0.3,1,1.85999618440837,0,1.79132158307766,1,NaN,0.640519561482764,0.748518740773327,0.275772221963195,0.656928228656878
91,1,0.7,1,0.875870431707881,1,0.725998906040331,1,0.5,0.622519395200529,0.739111239736598,0.254796430985941,0.634472552244522
92,0,0.7,0,1.40458758411842,0,0.570045678425231,1,NaN,0.659515532212889,0.737550259220415,0.278690902090948,0.646882316589479
93,0,0.7,0,0.65442548187275,0,0.577960916758457,0,NaN,0.623071861945434,0.711742458515905,0.277991224464858,0.666890101334355
94,0,0.7,0,0.718530429941893,0,0.551230648852652,1,NaN,0.630497088736709,0.729805682539913,0.265658784177803,0.638285108430707
95,0,0.7,0,0.828277876455104,0,0.993114427888941,1,NaN,0.658616359130886,0.684767939332649,0.25863024800229,0.635692599890323
96,0,0.3,0,0.996944810372952,0,1.69884934573929,0,NaN,0.644378660744141,0.68672752247389,0.260638630960261,0.656068388003919
97,0,0.7,0,1.46677236014511,0,0.604776310974557,0,NaN,0.655418840520921,0.745970616580326,0.258768597125352,0.660740941916354
98,1,0.7,0,2.60809684114793,1,1.22167467015242,0,1,0.657439313470984,0.712993117558041,0.260781773506279,0.608250528087533
99,0,0.3,1,1.04007034694223,1,1.22821430339536,0,NaN,0.592215721834979,0.72079015743314,0.250089020946974,0.634510962959047
100,1,0.7,0,2.19054952963052,1,0.556674205276067,1,0.5,0.616770453330636,0.670146694494998,0.258473170783006,0.607644043503609
101,0,0.3,1,0.809890893418924,1,1.59116606152384,0,NaN,0.59356790320015,0.667412690951214,0.257110369348461,0.587871506290088
102,1,0.7,1,1.7631003971328,0,0.82661761136842,1,1,0.608887314865069,0.644311542391659,0.270650788181547,0.613851958080868
103,0,0.7,1,1.63705246800237,0,0.473674836779537,0,NaN,0.606936147063323,0.676133587196058,0.29824833296105,0.585779741207754
104,1,0.7,1,0.730116967184586,1,0.434362174448324,1,0.5,0.586017150125415,0.663652132047492,0.263411893290358,0.611831141566987
105,0,0.7,1,0.628240384648961,1,0.488916975875327,1,NaN,0.603299884546093,0.674402711428625,0.269254307430119,0.621402157354106
106,1,0.7,0,1.04073747163784,0,0.932854050020978,1,0,0.614725128451167,0.675764660407539,0.261236938944706,0.624907011665324
107,0,0.3,1,0.762733931347611,0,1.34627847052616,1,NaN,0.633475306617012,0.653123725814818,0.279174723745298,0.666380124471372
108,0,0.7,1,0.711832920576853,1,0.793208247960138,1,NaN,0.669655931287043,0.625289108786173,0.273427192030637,0.681528223462047
109,1,0.7,0,0.933286020808737,0,1.06945220912166,1,0,0.679960749820031,0.651018220334611,0.264791126566944,0.641772584529722
110,0,0.7,1,1.17365286090353,1,0.620722402469255,0,NaN,0.689701696660449,0.644030373953514,0.313436572051486,0.586829539372535
111,1,0.7,1,2.27877752568747,0,0.769712176443136,1,0.5,0.676850702332236,0.643995846299736,0.35064109816098,0.608824064186254
112,0,0.7,1,1.83027411882358,1,0.587175086118805,1,NaN,0.719220060712582,0.713377802056125,0.351096013502823,0.637473715778071
113,0,0.3,1,0.670946628815727,1,1.72975533126009,1,NaN,0.705597242108592,0.732054865821076,0.335757586081151,0.632594266640525
114,1,0.7,1,0.736132560392434,1,0.656786680687219,1,0.5,0.698509137792294,0.738295920880318,0.323183823502144,0.659268965273647
115,0,0.3,1,0.561443694074114,0,1.36873038623162,1,NaN,0.67779046066284,0.745513658025649,0.312585475336444,0.653785019909122
116,1,0.7,1,1.3653002785577,0,0.684038271821919,1,1,0.683332666539165,0.714351047902546,0.276523387795153,0.63571681397927
117,0,0.7,1,0.803969784385117,1,0.593382666353136,1,NaN,0.675585272838183,0.688477087850112,0.26260502329491,0.662261901139755
118,0,0.3,1,0.70915144153696,1,1.69469143822789,1,NaN,0.699235888296148,0.663550132363754,0.253274407768633,0.652587869167665
119,0,0.7,1,0.622392931014474,1,1.09896115704032,0,NaN,0.732296342742805,0.668423569055023,0.250287824012485,0.670400108437177
120,0,0.3,1,1.33825214536773,0,1.74650982092135,1,NaN,0.716793730794275,0.688392926872217,0.254822466732837,0.632438339598983
121,1,0.7,1,1.72011734150146,0,0.816892985953018,1,1,0.709681875336295,0.722773235589875,0.279217172100566,0.669776643086354
122,0,0.7,0,0.603719476785045,1,1.25683787722664,1,NaN,0.692587776393568,0.70100050881867,0.250363123676435,0.69215617433857
123,1,0.7,0,1.01803802550421,1,0.566791558849218,1,0.5,0.728920270317387,0.683989339618044,0.257559338885321,0.65025240293606
124,0,0.3,0,0.683404956165759,0,1.83733115104405,0,NaN,0.738868288530381,0.655931031909572,0.260577089078738,0.686140575021663
125,1,0.7,1,1.11965771974792,0,0.695986444989103,1,0.5,0.74044211856483,0.663299466095172,0.27247461774289,0.689578189143581
126,0,0.3,1,0.663749530598579,1,1.57123140956537,1,NaN,0.727551434261914,0.659068623189793,0.294525279460153,0.69337872949301
127,0,0.7,0,1.35978819846787,1,0.487172791938065,1,NaN,0.743530622145269,0.65912477593748,0.31554274496248,0.67277740744551
128,1,0.7,1,1.42291630693944,0,0.747720305102121,1,0.5,0.717742162369971,0.631154789117131,0.32134011284935,0.670183234203385
129,0,0.3,0,0.776946404228511,1,1.84771414702846,0,NaN,0.718416982688972,0.625016129577434,0.379757552402032,0.665093099629194
130,1,0.7,0,1.32882244340726,0,0.76970402605366,1,0,0.68188379534353,0.622491215262743,0.388545630506124,0.654954633132077
131,0,0.7,0,1.10208336100186,1,0.367455302643066,1,NaN,0.677912622340089,0.634103915160241,0.443834965856187,0.627996544053913
132,1,0.7,0,0.732040157890879,1,0.547953285575204,1,0.5,0.673465208110802,0.657915815252766,0.453683748105339,0.602399473935588
133,0,0.3,0,0.585306835106167,1,1.85547482978291,0,NaN,0.658216515934718,0.662019929507012,0.447432879196203,0.594100456302678
134,1,0.7,1,1.00044887531112,1,0.662077190856508,1,0.5,0.624337480787388,0.666493563569852,0.496293243924077,0.612150699033996
135,0,0.3,0,1.05509151984734,0,1.35461571806081,0,NaN,0.629309582404101,0.671838403228055,0.474535692993249,0.603820674452654
136,1,0.7,0,2.11965892721491,1,0.688549061131198,1,0.5,0.653586072595652,0.68011234212267,0.49785402042997,0.602594752948092
137,0,0.7,1,0.848198642561329,1,1.89967018079187,1,NaN,0.683226148819914,0.705094501387859,0.504375827212253,0.617634738069488
138,0,0.3,0,1.77069837390445,1,1.20146381044469,0,NaN,0.672037139205716,0.684825968144988,0.534300080551672,0.609859079391582
139,0,0.7,0,1.22870211946429,1,0.521466321974003,0,NaN,0.664170269073507,0.702122631018556,0.506086782112364,0.564982464553023
140,0,0.7,0,2.33576838878798,0,0.783974155412579,1,NaN,0.656444700495172,0.715406555558988,0.511463337921726,0.591560612988847
141,0,0.7,0,0.6917992564413,0,0.542170733206149,1,NaN,0.638611244998575,0.694801793796885,0.481001943652184,0.620958682554217
142,1,0.7,0,1.12386966134363,1,0.644561092318327,1,0.5,0.589602801920029,0.739587166786449,0.48715921990256,0.622786595505153
143,0,0.7,0,0.982297649905377,0,0.548437479243148,1,NaN,0.601699228113365,0.714270941537486,0.50191954347588,0.595155954001705
144,0,0.3,0,0.5937168324308,0,1.64787015157344,1,NaN,0.570187369842252,0.716743011283239,0.565888779987667,0.586089767284504
145,1,0.7,0,1.24092257610755,1,0.637506475031842,1,0,0.551402501973377,0.740556496099906,0.545788850507458,0.525393134445971
146,0,0.7,0,1.19080641791516,0,0.684902213404712,1,NaN,0.580521399926095,0.739989547328327,0.538596391381885,0.511912883573687
147,0,0.3,0,0.52477990922489,0,0.501556121191243,1,NaN,0.568990003103942,0.746785169052261,0.550674219683784,0.512321473652822
148,0,0.7,0,1.04470761826087,0,0.632678726033191,1,NaN,0.547470439694649,0.714719903865736,0.520816309367327,0.513034689711133
149,0,0.3,0,0.754600745487551,0,1.3061565044336,1,NaN,0.574107940885818,0.7457532785231,0.533937130460686,0.517085853523604
150,0,0.7,0,0.697199042238935,0,0.603312259037921,1,NaN,0.622149477093281,0.747963969597105,0.558507485579323,0.511706039370881
151,0,0.3,0,0.64657635227195,0,0.658684212750813,1,NaN,0.615254051577223,0.735511765992902,0.581655021261576,0.499711657589533
152,0,0.7,0,0.611760291532846,0,0.753277061412518,1,NaN,0.607570279031202,0.728960613036762,0.66164620005755,0.525700369225231
153,0,0.7,0,0.662362756447692,0,0.561745862316457,0,NaN,0.581285016054104,0.721855378552306,0.673739840958062,0.550550086784567
154,1,0.7,0,0.846963405347196,1,0.531145365566772,1,0,0.589232086468969,0.749974380720986,0.682311702744093,0.577611118489073
155,0,0.7,0,1.76081406117737,1,0.504279861532268,1,NaN,0.576192626153542,0.732707848004301,0.685274889600001,0.550169598511852
156,1,0.7,0,0.767582509135536,1,0.478135516270413,1,0,0.589806498135599,0.749360482798171,0.663915668399921,0.547386307865263
157,0,0.3,0,1.09458862253086,1,1.23274380841758,1,NaN,0.554828790930231,0.72462475533315,0.687629128947826,0.562170647367062
158,0,0.7,1,0.57847499519994,1,0.585375056900375,0,NaN,0.564936807676667,0.700333493310341,0.715093412957425,0.596048976081681
159,0,0.3,0,0.989155148454302,1,0.515208028198685,0,NaN,0.589284812625139,0.739927100207246,0.701997243956656,0.629246488345507
160,0,0.7,0,0.793700592017558,1,0.656029599813337,1,NaN,0.546094465766346,0.733701184208642,0.661424328689124,0.637956684607543
161,0,0.7,0,0.601095050478762,1,0.438573814179108,1,NaN,0.514416479487051,0.720067054618623,0.669924276787073,0.643418182950524
162,0,0.3,0,0.760356129874708,0,1.20773387701047,1,NaN,0.477057645599468,0.743826756327833,0.680057772547459,0.670670817616923
163,0,0.7,0,0.787483653934032,1,0.625055392483773,1,NaN,0.495659029413806,0.739895988058787,0.662747708968157,0.644549403724955
164,0,0.7,0,0.692028071163804,1,0.501711280507152,1,NaN,0.498926826707534,0.71320669207754,0.672418234476588,0.64617715966724
165,0,0.3,0,0.740747493604431,1,0.413032899807149,0,NaN,0.519076450097827,0.711833653802764,0.633867087795926,0.641095913120261
166,0,0.7,0,0.528008973880787,1,1.11278029802634,0,NaN,0.535405484800612,0.713236823992644,0.652392793356088,0.646898262199773
167,1,0.7,0,2.02394615428057,0,0.700609226732922,1,0.5,0.57266644021443,0.747621142245076,0.642503196473475,0.648550566199841
168,0,0.3,1,0.803927523091261,0,0.51313269684033,0,NaN,0.545607940327794,0.723358563334882,0.646627766813303,0.684312460010656
169,1,0.7,1,0.960501991714409,1,0.983894523058552,1,0.5,0.587727159139729,0.719836020171391,0.586523685763955,0.710798040804467
170,0,0.3,1,0.627717250215937,1,1.6004469433683,1,NaN,0.588408561770769,0.702268693617368,0.582602278348234,0.735928845336665
171,1,0.7,1,2.42780141055846,0,0.912351889259298,1,0.5,0.554412190413283,0.689608609675005,0.566820063663471,0.699879892458358
172,0,0.3,1,1.40752534771309,0,1.73294605888805,0,NaN,0.538580256984815,0.741532874123109,0.584795933798566,0.686832779510749
173,1,0.7,0,1.51480956457817,0,0.707543399323185,1,0.5,0.548590903834997,0.733560292234681,0.647132273209037,0.676019347437145
174,0,0.7,1,0.682861596680596,1,1.0127559675966,0,NaN,0.569114187199753,0.703236305414699,0.681787933116591,0.688183333920047
175,0,0.7,1,0.375919334052014,0,0.366814440320013,1,NaN,0.550274223872902,0.677548287538429,0.626898856705911,0.653273999918606
176,0,0.7,1,0.523110588139389,0,0.563829947801423,1,NaN,0.536897653679006,0.623498853283079,0.675968978830491,0.617347671338598
177,0,0.7,1,0.585071983055968,0,0.503351924278832,1,NaN,0.529943029730822,0.666551327265918,0.682099557369002,0.642795710739814
178,0,0.7,1,0.39044906849449,0,0.580592889717082,1,NaN,0.556190975216206,0.694830611482981,0.676023153051799,0.641503058741864
179,0,0.7,1,0.481103466510831,0,0.490980232585571,1,NaN,0.569846411829084,0.711665117457161,0.673860509053071,0.651235273832518
180,0,0.7,1,0.523011575969576,0,0.539587964463863,1,NaN,0.59908641347217,0.687744885744401,0.643987803548592,0.666511370345042
181,0,0.7,1,0.441643493388256,0,0.477731920916995,1,NaN,0.573253531950271,0.671685199866346,0.676610641962082,0.662033079988401
182,0,0.3,1,0.630281906975142,0,0.650825121556409,1,NaN,0.549660815250543,0.656998586041517,0.67536176968966,0.69138996045437
183,0,0.7,1,0.828126339532901,0,0.464930069632828,1,NaN,0.487616810717028,0.671715234908839,0.691706790823624,0.713896574432813
184,0,0.7,1,0.513503086884157,0,0.490749002936354,1,NaN,0.461763592822811,0.689730245274587,0.641621862725613,0.721199223190961
185,0,0.3,1,0.570682918347302,0,0.897481951411464,0,NaN,0.46383552253711,0.705538674311807,0.656743780578696,0.715079113154511
186,1,0.7,0,1.51361749423813,1,0.554759768696385,1,0.5,0.453347124797019,0.717539823039144,0.6437091965714,0.676522602447913
187,0,0.3,1,1.50368216609786,1,1.44130419557769,1,NaN,0.445779286437896,0.729136987590744,0.668003276539924,0.685045313795536
188,0,0.7,0,1.17090587685379,1,0.393795559190039,0,NaN,0.444239335440127,0.71282298154195,0.671746086685394,0.654498672940874
189,0,0.7,1,0.549669697807985,1,0.909041622544464,0,NaN,0.435276240970237,0.711337130628004,0.706010093648573,0.629216371149403
190,0,0.3,1,0.380290661101753,0,0.363125331299671,1,NaN,0.443609756019257,0.709464696936624,0.71176489393954,0.619697127324913
191,0,0.7,1,0.424169052414072,0,0.557024672147236,1,NaN,0.4386081943231,0.7117099134984,0.699632588207443,0.614998442748013
192,0,0.7,1,0.601961708853196,0,0.599540136754513,0,NaN,0.43242026258134,0.669968467010983,0.670269751911305,0.675579903569812
193,0,0.3,1,0.522753178353014,1,1.3234516367811,0,NaN,0.432023364398271,0.648833323307162,0.63778171258373,0.666951697903566
194,0,0.7,0,0.921891470585251,0,0.402660771018418,0,NaN,0.417475811524279,0.614247654865883,0.631074630055724,0.677024897726376
195,0,0.7,1,0.333882327657193,1,0.437980043010612,0,NaN,0.462393488762099,0.636680030029596,0.618146429360652,0.658305930697604
196,1,0.7,0,2.01576195300004,1,0.492621480087109,1,1,0.42568597028857,0.628926117943586,0.601643686158268,0.651723162230395
197,0,0.7,1,0.548429026988742,0,0.475855519507604,0,NaN,0.416790795054982,0.627016769990758,0.615615735268902,0.692730245647801
198,0,0.3,0,0.692385782822384,1,0.750440121177235,0,NaN,0.375800849195707,0.633561477413976,0.59833251107286,0.657257236547288
199,0,0.7,0,0.459622051217593,0,0.974925771057315,1,NaN,0.375006625879168,0.630738624728333,0.577513259103616,0.665328420998895
200,0,0.3,0,0.475522560889658,0,1.31822542415466,1,NaN,0.358939160796328,0.612785441061312,0.612278305734239,0.66931586462236
