Trial_Number,Flex0_or_Spec1,Transition_Prob,First_Choice,RT1,Second_Choice,RT2,Reward,Winning_Resource,p1,p2,p3,p4
1,0,0.7,0,0.754070326453075,1,0.6814170939615,0,NaN,0.643534759033062,0.461164191671067,0.426655819687102,0.527010078090321
2,0,0.7,0,0.00977844325825572,0,0.614777696086094,1,NaN,0.656360369106326,0.457943325079242,0.414918664605175,0.506187778367304
3,0,0.3,0,0.289299497846514,1,1.17918492341414,1,NaN,0.651041086924337,0.444927003627454,0.433799104461225,0.492581857479685
4,0,0.7,0,0.303835698752664,0,0.657181237707846,1,NaN,0.644506735780697,0.444404094344916,0.424178919927894,0.476672701322703
5,0,0.3,0,0.25832864176482,1,0.557746487320401,1,NaN,0.631669458305335,0.421262401108612,0.43053560552848,0.478508039861891
6,0,0.7,0,0.234872513101436,0,0.591050187242217,1,NaN,0.624812996038598,0.44055424059027,0.412897470075261,0.484530215665423
7,0,0.7,0,0.258817367721349,1,0.446410852833651,0,NaN,0.616278915325527,0.481600166118108,0.412824619308223,0.4982090637576
8,0,0.3,1,0.280251577612944,0,0.458836083533242,0,NaN,0.56409471951955,0.482500526734446,0.446241052111514,0.513855403485194
9,0,0.7,1,0.228026727563702,0,0.432834595325403,0,NaN,0.529483407027676,0.481353298390265,0.450193459048071,0.499162064573534
10,0,0.7,1,0.370680065592751,0,0.401622546021827,1,NaN,0.497348364280749,0.475785627260711,0.475964511634895,0.483825303211299
11,0,0.7,1,0.228401648811996,1,0.449462748598307,0,NaN,0.498290401688967,0.47692341117037,0.462888004343244,0.473724849141991
12,0,0.7,1,0.258476557559334,0,0.37399730423931,0,NaN,0.499031596617597,0.442397093530745,0.409561833432735,0.447802251305953
13,0,0.7,0,0.266395789571106,0,0.405221126624383,1,NaN,0.497625793206541,0.464437365091617,0.357991477684955,0.431168805335559
14,0,0.3,0,0.248817352694459,1,0.507844821200706,1,NaN,0.512652870295694,0.479792252303829,0.332479922593646,0.441843043324771
15,1,0.7,0,0.267036053701304,0,0.565723376348615,0,0,0.511509080983394,0.489039605120968,0.305996389660947,0.47729064527998
16,0,0.7,0,0.31409018940758,0,0.426916151307523,1,NaN,0.495782049278934,0.487834769513492,0.309819990766245,0.499015422621726
17,1,0.7,0,0.341505330288783,0,0.589586122543551,0,1,0.535164965323209,0.467680712734555,0.274351204798839,0.511384627976952
18,0,0.3,0,0.265393584384583,1,0.38003589224536,1,NaN,0.539274486218282,0.457500616251815,0.288315397034669,0.533155031104025
19,1,0.7,0,0.320541432243772,0,0.473384962999262,0,0,0.535954251843349,0.450351300097834,0.289910448898996,0.514848050151785
20,0,0.3,0,0.273911120719276,0,0.484678185079247,0,NaN,0.537770796939329,0.455567069776835,0.285516243949226,0.539272010098792
21,1,0.7,0,0.292549419682473,0,0.278622088604607,1,1,0.548732909080237,0.432490039773319,0.310599649287368,0.550962665985483
22,0,0.3,0,0.302990767289884,0,0.368469780660234,1,NaN,0.527835885704785,0.430447798950912,0.301779807142104,0.573514925078444
23,0,0.7,0,0.285025636199862,1,0.286987482919358,1,NaN,0.523827369221303,0.420103740637171,0.313404278475706,0.62376679581864
24,1,0.7,0,0.463381023611873,1,0.402342805522494,0,0.5,0.498046115916582,0.381092329228505,0.323768302587432,0.606064412615496
25,0,0.7,0,0.221541675273329,0,0.330332855810411,0,NaN,0.461704040115601,0.39705954393327,0.305833894865936,0.642863291932839
26,0,0.3,0,0.225043053971604,0,0.34146699286066,1,NaN,0.459360796958535,0.356154803859159,0.327381242958759,0.641721716409802
27,0,0.7,0,0.267231061006896,1,0.246567522757687,0,NaN,0.458169886283734,0.333304044024346,0.317811036164907,0.654901274662502
28,0,0.3,0,0.27195863192901,1,0.28273595974315,0,NaN,0.440162655004414,0.335822237797648,0.322356769364071,0.645425561215926
29,1,0.7,0,0.218580340151675,1,0.239316930761561,0,0,0.417810738121028,0.329086182401566,0.360647683328206,0.638732606258857
30,0,0.7,0,0.28114812867716,0,0.33123695361428,0,NaN,0.421434608339641,0.308320312816902,0.35784977479667,0.606166244543938
31,0,0.7,0,0.297130885883234,0,0.315183558966964,0,NaN,0.468316255692355,0.308096068392846,0.370987239140836,0.582913901585499
32,1,0.7,1,0.58565880660899,1,0.471666120691225,0,0,0.453907443689298,0.266385462036309,0.367866174835391,0.59751796034797
33,0,0.3,0,0.720136323943734,0,0.257039057323709,0,NaN,0.42493048023778,0.293639015012628,0.357185550205114,0.582429828763746
34,1,0.7,0,0.226189552573487,0,0.198985116323456,0,0,0.431396810142194,0.321020650201694,0.400782115922256,0.528468592523733
35,0,0.3,0,0.313949820352718,0,0.32351876643952,0,NaN,0.436814548430272,0.330557561013057,0.381146963591338,0.486650385646406
36,1,0.7,0,0.338037760811858,1,0.305946668842807,0,1,0.429565450919772,0.320707062998694,0.386545356145246,0.503061343339321
37,0,0.3,0,0.24931151221972,1,0.31668807414826,1,NaN,0.4131526319426,0.285943676815177,0.375224546658354,0.478189991573853
38,0,0.7,0,0.483102126745507,0,0.253244865569286,1,NaN,0.427721568755621,0.287134796627876,0.384462726559955,0.488571717259468
39,0,0.7,0,0.374471540562809,1,0.669137062155642,0,NaN,0.428889836708927,0.269147679241209,0.362631893667234,0.47158720120158
40,1,0.7,1,0.654161037993617,0,0.329163415357471,0,1,0.48047444054424,0.298087002084787,0.364424497114133,0.475018308074204
41,0,0.7,1,0.24772971845232,0,0.283020018483512,0,NaN,0.476012855781507,0.328499895920474,0.40639742662857,0.469894727072117
42,0,0.7,0,0.274985774420202,0,0.261660370160826,1,NaN,0.472110879385577,0.336575224747456,0.386866503146383,0.474680733292987
43,0,0.3,0,0.294819172937423,1,0.272722964175045,0,NaN,0.425942123655263,0.290528536331978,0.363390001337681,0.462296246071373
44,0,0.7,0,0.273443827405572,1,0.284172252519056,0,NaN,0.413818631231557,0.292991471768314,0.338780879335252,0.448988476738333
45,0,0.3,0,0.323847803636454,0,0.284580681240186,0,NaN,0.440712437762823,0.29218830016979,0.332455008677754,0.448015222192387
46,0,0.7,0,0.380594953661785,0,0.283190876245499,1,NaN,0.430174001952472,0.304301434824619,0.322686046442341,0.466795976588274
47,1,0.7,0,0.275052185636014,0,0.526013110182248,0,0.5,0.393022088153877,0.259444670354921,0.317090313166868,0.47605700119275
48,0,0.7,0,0.332397036254406,0,0.524368527694605,0,NaN,0.380838690803233,0.257002838115837,0.313720014221656,0.481990852625719
49,1,0.7,0,0.355007327860221,0,0.626396332867444,0,0.5,0.36430320696398,0.30237603349245,0.321886982713043,0.51754100702108
50,0,0.7,0,0.340814050170593,1,0.260852568666451,0,NaN,0.374309727422058,0.318635233735561,0.362298369804731,0.521252817647828
51,1,0.7,1,0.310209964984097,1,0.407700980664231,0,1,0.353877423724602,0.338114492961116,0.36018871696537,0.514059057233298
52,0,0.3,1,0.13076724531129,1,1.73151889932342,0,NaN,0.383481601605889,0.362633357630718,0.397289324159208,0.492091737997141
53,0,0.7,1,0.00194252713117748,1,0.342744200723246,1,NaN,0.380247311425215,0.372055647925808,0.397495500393274,0.493730306095684
54,0,0.3,1,0.228529943153262,1,0.705232748645358,0,NaN,0.376815598752819,0.387896597092471,0.430166790430562,0.509847513490844
55,0,0.7,1,0.240526218083687,1,0.268584641860798,1,NaN,0.357290496628461,0.381674253501384,0.406295587278354,0.504816711183376
56,0,0.3,1,0.300944095361046,0,0.36649465165101,1,NaN,0.3472022528256,0.401053186832947,0.404774207605665,0.482709789276215
57,1,0.7,1,0.331058247131296,0,0.71510537492577,0,0,0.327952376519738,0.402868029617222,0.37262534636077,0.511128831657869
58,0,0.7,1,0.321590427192859,1,0.290340342209674,1,NaN,0.337846801765018,0.388197620475891,0.38354732030584,0.503564557807286
59,0,0.7,1,0.338210429879837,0,0.354141869349405,0,NaN,0.298596530944105,0.381019066638438,0.372208877417408,0.494990095602733
60,1,0.7,0,0.303460173658095,0,0.344838266144507,0,0,0.300378141540206,0.36678480804213,0.329219756829539,0.4925797211715
61,0,0.3,0,0.19874301739037,0,0.444007673417218,0,NaN,0.316097028758813,0.386171167468217,0.335980756054619,0.470127808510152
62,0,0.7,0,0.293835381744429,1,0.336074404651299,1,NaN,0.30628243830716,0.402546529367461,0.318333182343355,0.467099764334487
63,1,0.7,0,0.24585933808703,0,0.249987095128745,1,0.5,0.288861914191498,0.461975813682763,0.31775223995376,0.436930321374632
64,0,0.3,0,0.322979628341272,0,0.315746846492402,0,NaN,0.29281724271184,0.466159093949654,0.27498586073432,0.477187676599914
65,0,0.7,0,0.274426713003777,0,0.261038821889088,1,NaN,0.310332049738898,0.401656609347216,0.271188070647338,0.447331279697826
66,0,0.3,0,0.326334600686096,1,0.223062793258578,0,NaN,0.307594807432226,0.41729273704726,0.327298172875994,0.448608441199409
67,1,0.7,1,1.12958784308285,1,0.322209258680232,0,0,0.337993803729239,0.398674766125078,0.335883009477188,0.43523209375477
68,0,0.7,1,0.376811327296309,0,0.263550975825638,1,NaN,0.311999345183671,0.409577552917866,0.354047716645971,0.481765609852799
69,0,0.7,1,0.248738564900123,1,0.26811372616794,0,NaN,0.269528152966381,0.404474965794098,0.373364383610798,0.494338788318199
70,0,0.7,0,0.324616965837777,0,0.461504907580093,0,NaN,0.252106493427524,0.412101833758486,0.354403579979069,0.523061747173163
71,0,0.7,0,0.214659665361978,0,0.283421202329919,1,NaN,0.302474519792238,0.420755173440512,0.386654042634612,0.484052072963735
72,0,0.3,0,0.531231519882567,1,0.25912406668067,0,NaN,0.310605434119438,0.41537777823313,0.389064837083775,0.464999898102048
73,0,0.7,0,0.308322378084995,1,0.813896842300892,0,NaN,0.253091728969434,0.382239056741147,0.36162162082909,0.43766378756825
74,1,0.7,0,0.208927172585391,1,0.382472277153283,1,0.5,0.27635281907372,0.387881069441577,0.317077435758071,0.449181701928487
75,0,0.3,0,0.498298515216447,0,0.371770114637911,0,NaN,0.279428621841837,0.40471806514549,0.296204968349186,0.433860000864106
76,1,0.7,0,0.424126881640404,0,0.412958633271046,1,1,0.271494272979158,0.356947434671842,0.267142102720724,0.460949565118988
77,0,0.7,1,0.392171328770928,0,0.27018334006425,0,NaN,0.262097945872882,0.386124806359634,0.253712542312696,0.419194546274626
78,0,0.3,1,0.206752810045145,0,0.324135786737315,0,NaN,0.292491333010489,0.41777101908961,0.254006273561631,0.425627988404925
79,1,0.7,1,0.234702560934238,1,0.206597649375908,0,1,0.2883558956223,0.438537006222949,0.280259311014746,0.425704551156177
80,0,0.3,1,0.297953177010641,0,0.387288597412407,0,NaN,0.277469728305492,0.429863806691417,0.271993320415396,0.44868909841611
81,1,0.7,1,0.59897847531829,0,0.212430966319516,0,1,0.307443914640835,0.433659661334724,0.30542610790206,0.456682737484323
82,0,0.3,0,0.27954429842066,1,0.154298539389856,1,NaN,0.348074677852105,0.390129438729609,0.309467636749357,0.454167458499172
83,1,0.7,0,0.295463361311704,0,0.49761478183791,0,0,0.348304988206527,0.366493351267009,0.317142855368963,0.484407456790634
84,0,0.3,0,0.257420317851938,0,0.188714022981003,0,NaN,0.31026332428963,0.352516954219477,0.361350448259333,0.492051500736139
85,0,0.7,0,0.344591639121063,0,0.256783072371036,0,NaN,0.283670468084374,0.345511943297718,0.378421098773189,0.478068351639771
86,0,0.3,0,0.209985525347292,0,0.279352008015849,0,NaN,0.28824523909113,0.291789812014663,0.381207759751605,0.485342812827363
87,1,0.7,0,0.223856406868435,0,0.20461225672625,0,0.5,0.264424683049157,0.2634024900089,0.400212387043148,0.499685638271285
88,0,0.3,0,0.255776942940429,1,0.251206645974889,1,NaN,0.26425633372399,0.280915580873052,0.365276208979441,0.517494588718098
89,0,0.7,0,0.332390395109542,0,0.460530474432744,0,NaN,0.299563365935708,0.30673752675344,0.355161901046813,0.526176590548495
90,0,0.7,0,0.253695254214108,1,0.273061359417625,0,NaN,0.317809304023681,0.320787147849948,0.376347597585113,0.518444627555492
91,0,0.3,1,0.329576673917472,0,1.29030592925847,0,NaN,0.346105721639515,0.277178103671826,0.350308398305452,0.492585418415089
92,0,0.7,1,0.786112213740125,0,1.60005795885809,1,NaN,0.305182383661013,0.259007484904603,0.348189471740702,0.49859179014623
93,0,0.3,0,0.467260644189082,0,1.25411213538609,0,NaN,0.345554543209829,0.26867573592631,0.363943395618598,0.506372030614801
94,0,0.7,0,0.455254407715984,1,0.17058014695067,1,NaN,0.356667933277534,0.256933320593484,0.337206389522235,0.522441194085426
95,0,0.7,0,0.279093608027324,0,0.513932311907411,0,NaN,0.316761160745252,0.283710345476951,0.342111377565901,0.519595118776128
96,1,0.7,0,0.321132793673314,0,0.177908923127688,1,1,0.295271136039893,0.253028635642993,0.333290287072603,0.546273390443323
97,0,0.7,0,0.318229115568101,1,0.17514380288776,0,NaN,0.326718322679611,0.252579968484121,0.343241896978431,0.538920899634408
98,0,0.7,0,0.347603386384435,0,0.307040038402192,1,NaN,0.374781997672277,0.280653107340146,0.316769718095169,0.583272987487192
99,0,0.3,0,0.298268328420818,1,0.571608312893659,0,NaN,0.368949527982268,0.282332167415291,0.311625952169836,0.567887853869191
100,1,0.7,0,0.320574939716607,0,0.256876651779748,1,1,0.385705776387921,0.324684892802448,0.320264458189989,0.566509764660983
101,0,0.7,0,0.330069022253156,0,0.314673098502681,1,NaN,0.430875294396134,0.370802572360233,0.317807722471877,0.597001497240602
102,0,0.3,0,0.265226047020406,1,0.332112977514043,0,NaN,0.438399848779727,0.356070925062235,0.330913159508424,0.611857601361261
103,0,0.7,0,0.481926347012632,0,0.307996057556011,0,NaN,0.424765302277857,0.372711691940549,0.320156304701431,0.574546343341112
104,0,0.7,0,0.000191988656297326,0,0.376429463038221,0,NaN,0.449234645408261,0.421616755197633,0.314214686150308,0.53494688680389
105,0,0.7,0,0.317107068374753,1,0.309834138024598,1,NaN,0.512232679305735,0.409085867175187,0.289885145914387,0.543365385372226
106,0,0.7,0,0.380983157199807,0,0.210996182868257,1,NaN,0.5045290691576,0.441760594360864,0.296647321285742,0.53775459710337
107,1,0.7,0,0.318249642732553,0,0.23103756911587,0,0,0.498260973453315,0.428714399429271,0.286192023276338,0.555958001066465
108,0,0.7,0,0.240845595486462,0,0.22894259809982,0,NaN,0.502381528813137,0.40885193472154,0.273045529935089,0.548132053993454
109,0,0.3,0,0.247406718670391,1,0.235434593283571,0,NaN,0.531299747524501,0.448350815363985,0.265036516063527,0.556974081430892
110,0,0.7,1,0.277430611662567,1,0.496196601190604,1,NaN,0.53455356177991,0.50504304132065,0.260875627470865,0.540712499975293
111,1,0.7,0,0.312007293221541,0,0.233373129740357,1,0.5,0.560990181318242,0.527329212179258,0.260519791235684,0.541901728338175
112,0,0.3,0,0.26716766867321,1,0.000175385968759656,0,NaN,0.571687357282308,0.511329728566045,0.275190274588727,0.486291203592018
113,0,0.7,1,0.273157051880844,1,0.259872701833956,1,NaN,0.555688224255912,0.525779063373401,0.296963862822974,0.534710487136484
114,1,0.7,0,0.46106719749514,0,0.208498820429668,0,1,0.567332815092232,0.511467529689543,0.297621325821484,0.536028885975974
115,0,0.7,0,0.235684540937655,0,0.255899501731619,0,NaN,0.61345551868303,0.543589221218826,0.293410441299011,0.479218466289664
116,0,0.7,0,0.0409666449995711,1,0.260993239586242,0,NaN,0.568327513114148,0.567298925692901,0.303449819913627,0.466674138199872
117,0,0.7,1,0.50265508890152,0,1.01558821438812,0,NaN,0.555823298921924,0.590687329040472,0.324690171062843,0.45321682803652
118,0,0.3,1,0.000184442033059895,0,0.879466718179174,1,NaN,0.571864683691038,0.598039462809385,0.305944988342069,0.418929075548119
119,0,0.7,1,0.296029667602852,0,0.370083270594478,0,NaN,0.577364020568109,0.604084240017402,0.273403249635652,0.440547581574775
120,0,0.3,1,0.382627135841176,0,0.332763203419745,1,NaN,0.584646164374082,0.58516940229653,0.251589051703592,0.462861311666909
121,1,0.7,1,0.266505971667357,0,0.317126991809346,1,1,0.565612201828673,0.608180816129203,0.288181292687408,0.481299970826946
122,0,0.3,1,0.195699573960155,1,0.249879629700445,1,NaN,0.586228466957332,0.584719414741217,0.270276929931324,0.504548500966488
123,0,0.7,1,0.258973132236861,0,0.47054528107401,0,NaN,0.605016755479558,0.577135466776306,0.25367868063544,0.504611635227705
124,0,0.7,1,0.2629384836182,0,0.266383111011237,0,NaN,0.643734441690006,0.568870778801507,0.283481638619847,0.478770145104059
125,0,0.3,0,0.23487945611123,0,0.359122708206996,1,NaN,0.642775679775778,0.604389617018424,0.264657527546165,0.464125602472402
126,1,0.7,0,0.244019748293795,1,0.272076964494772,0,1,0.650727746627075,0.638364463044488,0.262733316187141,0.463792054993837
127,0,0.7,0,0.256780355470255,0,0.236150928540155,1,NaN,0.657391437539729,0.638608378347911,0.269454878519264,0.473863541315106
128,0,0.3,0,0.278025595471263,1,0.256600743508898,1,NaN,0.650913230778439,0.635339072916785,0.275244540959524,0.473016713458517
129,0,0.7,0,0.289857351803221,0,0.284039731952362,1,NaN,0.662842334973,0.639255629817123,0.31744153560562,0.502984831704765
130,0,0.7,0,0.475943906698376,1,0.310534776072018,1,NaN,0.657444414476606,0.634789594272773,0.351555675322434,0.487875468422831
131,0,0.3,0,0.365830841707066,0,0.285059747402556,0,NaN,0.672235537692943,0.654212171642125,0.348313586494216,0.464768509945603
132,1,0.7,1,0.260362333385274,0,0.447806996991858,0,0,0.668315093200891,0.673108306620483,0.35770230959682,0.479812548684659
133,0,0.7,1,0.144879622152075,0,0.313055382459424,0,NaN,0.641359297337548,0.658838029123813,0.375375346826935,0.472015415378557
134,1,0.7,1,0.320301144616678,1,0.120937786297873,0,0,0.607623164330582,0.620181899152759,0.396468156579202,0.488474966937024
135,0,0.7,1,0.247578482143581,0,0.227703425684012,0,NaN,0.644609576513661,0.635247257886981,0.361299729394323,0.497647230475036
136,1,0.7,1,0.366053621051833,1,0.25283100316301,0,1,0.630062108197227,0.655478218928113,0.390295588035102,0.476334973355604
137,0,0.3,1,0.230014233151451,1,0.210856115678325,1,NaN,0.649269239324509,0.705284184198389,0.395842227096847,0.460024405998332
138,1,0.7,1,0.46976525161881,0,0.29661740665324,0,0,0.608908788881317,0.694848058285939,0.354788160695918,0.429328999507067
139,0,0.7,1,0.240410904050805,1,0.276432028855197,0,NaN,0.629129228921574,0.683413387710763,0.396061157841783,0.419056387155777
140,0,0.3,1,0.28501778759528,0,0.367051298147999,1,NaN,0.633314773744626,0.658422334182728,0.367856299235617,0.404326415682924
141,0,0.7,1,0.236108968616463,1,0.303688688552938,1,NaN,0.646634613782181,0.654890134773755,0.358456844657077,0.3682785244748
142,0,0.7,1,0.254934728262015,0,0.314322024816647,0,NaN,0.66293691861545,0.656974107830384,0.382598318924498,0.330224781523277
143,0,0.3,0,0.296919577638619,1,0.266973566845991,0,NaN,0.65532175815938,0.63231580558001,0.371578802413972,0.297971988666271
144,1,0.7,0,0.331452488084324,0,0.411542867659591,0,0.5,0.67197909266539,0.632647057205125,0.401634366194252,0.28209843551484
145,0,0.3,0,0.222782960743643,1,0.339835088932887,0,NaN,0.664226953837926,0.638688381711452,0.353843533204026,0.274883181163503
146,1,0.7,0,0.433201064355671,1,0.221455642720684,0,0,0.650907232965798,0.633404779973668,0.360310285373534,0.304426014693863
147,0,0.7,0,0.327731952420436,1,0.256646325695328,0,NaN,0.639993313916354,0.578168695066867,0.395837807621979,0.349364501918544
148,0,0.7,0,0.401702239410952,1,0.191082185367122,0,NaN,0.64405353583709,0.614853060723442,0.382504294226815,0.334043930849614
149,0,0.3,0,0.30705965985544,0,0.236536113312468,1,NaN,0.656179014893969,0.601048829538738,0.383652720765283,0.337176160411737
150,0,0.7,0,0.42239747394342,1,0.339078605175018,1,NaN,0.621998689468179,0.625635634978841,0.344428290608261,0.342315149859596
151,0,0.7,0,0.217150990269147,0,0.309684712905437,1,NaN,0.638915095555054,0.604286172507629,0.356434216152262,0.34352975537581
152,1,0.7,0,0.340894649270922,1,0.420891449321061,0,0,0.649276851349927,0.609286063609416,0.352980263654784,0.349135892173414
153,0,0.3,1,0.519266941235401,0,0.368040824774653,1,NaN,0.624585860757883,0.635235619580724,0.371571522113088,0.350703775317746
154,0,0.7,1,0.276673222193494,1,0.303359953104518,0,NaN,0.631282460165793,0.639360062055156,0.360409108070754,0.340297739845806
155,0,0.7,0,0.334455782896839,0,0.430713361711241,1,NaN,0.650809946489524,0.646031460723857,0.41678049313938,0.306641920395619
156,0,0.7,0,0.257092488114722,1,0.252548151882365,0,NaN,0.64689798401123,0.592018373651923,0.388694791612949,0.309399790882943
157,1,0.7,0,0.405725549790077,0,0.339151657535695,0,0.5,0.650786733382632,0.601950449143705,0.391328114886124,0.334051280191084
158,0,0.3,1,0.457091280724853,1,0.460289281094447,1,NaN,0.615395710093377,0.613516627870377,0.354740492693061,0.307189902850122
159,0,0.7,1,0.525561212329194,0,0.566241383552551,1,NaN,0.60021544521034,0.640573014181435,0.335290807181888,0.286847478437546
160,0,0.3,1,0.266918324865401,1,0.461584902950563,1,NaN,0.612147940384628,0.598839083035008,0.320305643265049,0.264186932662104
161,0,0.7,1,0.598798259394243,0,0.30021749669686,0,NaN,0.62134955368771,0.591188695123806,0.340036370222808,0.300682778580567
162,1,0.7,0,0.659231833880767,0,0.398924440727569,0,0.5,0.623192342795946,0.596352556292638,0.366478377827784,0.320159509562725
163,0,0.3,0,0.30602787155658,0,0.259227305883542,0,NaN,0.581224189953857,0.582192175574249,0.383315207515313,0.361459284210912
164,1,0.7,0,1.06042149977293,1,0.352021239465103,1,0.5,0.551400059506897,0.549092048718408,0.401308953114884,0.341474378925695
165,0,0.7,0,0.261004106956534,0,0.352509059826843,1,NaN,0.548032633578362,0.548957556902506,0.35401080279022,0.330379753307126
166,1,0.7,0,0.55758438364137,1,0.325124105904251,0,1,0.516244602267687,0.563326977210279,0.38313944426055,0.330735052834236
167,0,0.7,0,0.259687656187452,0,0.262918258318678,0,NaN,0.527680498612642,0.549208588330845,0.3429943698249,0.282010872761734
168,0,0.7,1,0.320122136152349,0,0.361041689524427,0,NaN,0.533331752530037,0.575286227450955,0.347955144898843,0.294446199940697
169,0,0.3,1,0.246018423000351,0,0.666234289645217,1,NaN,0.544970274105627,0.542002989163434,0.342691903233997,0.279973546691751
170,1,0.7,1,0.0428349124267697,1,0.254979706951417,0,0.5,0.584309728006159,0.540023011957386,0.330857450562271,0.311345878693878
171,0,0.3,1,0.247983590350486,0,0.435397765249945,1,NaN,0.597819403037537,0.511515486772308,0.311579784146745,0.289251464161003
172,0,0.7,1,0.397089077043347,1,0.283332151011564,0,NaN,0.640906709696541,0.538408336214068,0.303193793428049,0.258163214325348
173,0,0.3,0,0.299175746622495,0,0.308594060130417,0,NaN,0.642265159708499,0.538047364395192,0.302894484177175,0.273039252769804
174,0,0.7,0,0.435810420196503,1,0.503866187529638,0,NaN,0.638012415694679,0.491827815657925,0.331546302940375,0.262957255018264
175,0,0.7,0,0.334928509779274,1,0.287089212797582,1,NaN,0.641533920309976,0.532556290056366,0.327931114179836,0.251828004618213
176,0,0.3,0,0.358913513016887,0,0.318341410835274,0,NaN,0.661643153965506,0.561528195461203,0.323654763590338,0.266669303911274
177,1,0.7,0,0.404907182790339,0,0.466326359659433,0,1,0.688099657552987,0.570731694929212,0.355112595898954,0.308705654842045
178,0,0.7,0,0.242799291852862,1,0.262888373341411,0,NaN,0.703717479162287,0.562652290936574,0.37743307203196,0.293427476575526
179,0,0.3,0,0.344030162668787,0,0.800158481346443,1,NaN,0.665207680702431,0.554899330366153,0.358264141914792,0.280845576195106
180,1,0.7,0,0.275214892928489,1,0.374000021140091,0,0.5,0.701482769259035,0.544659020933739,0.374626952232707,0.266471736488754
181,0,0.3,0,0.22643678332679,0,0.0235189173836261,0,NaN,0.70524892259073,0.541211254909025,0.352015698707381,0.294288763346362
182,0,0.7,0,0.417849515331909,1,0.430493902997114,0,NaN,0.701939319168081,0.522178098193134,0.36875764731552,0.282330095071236
183,0,0.3,0,0.337151775253005,1,0.513106096419506,1,NaN,0.657064488909307,0.519553705946838,0.352493636381584,0.268468616587735
184,0,0.7,0,0.208376563503407,0,0.365701641771011,0,NaN,0.645381538503164,0.539123688980322,0.312363723266788,0.311339409838677
185,1,0.7,1,0.442198572447523,0,0.694200341356918,1,0.5,0.623616999073965,0.548114723856809,0.299600907838093,0.311045521542129
186,0,0.3,1,0.598203879315406,1,0.619425875367597,0,NaN,0.674119208966573,0.566098847506027,0.272666837800215,0.29567456789784
187,0,0.7,1,0.21392159559764,1,0.235486212885007,0,NaN,0.634729029918804,0.601379830867528,0.258644062423124,0.250715687548322
188,0,0.7,1,0.181343286996707,0,0.267394674010575,0,NaN,0.647899935386832,0.608005257596278,0.256526990117305,0.270593549254918
189,1,0.7,1,0.25996869627852,1,0.335200493922457,0,0.5,0.597696720270055,0.614368213749353,0.256396061484572,0.274312523375425
190,0,0.3,1,0.000120445736683905,0,0.194592922111042,0,NaN,0.589487411722257,0.610937687653719,0.295721451917307,0.31261794608544
191,0,0.7,0,0.334491101675667,1,0.334524307283573,0,NaN,0.607095336404694,0.602813476639878,0.251702250930664,0.287394759925168
192,1,0.7,0,0.244395273271948,1,0.256373436073773,0,1,0.639087361278031,0.550498040998023,0.28486111618501,0.269277858136083
193,0,0.7,0,0.241588797071017,0,0.765597798745148,1,NaN,0.673319811339389,0.524138322605191,0.29998985132079,0.265974923999174
194,0,0.3,0,0.514275838853791,0,0.690952532575466,0,NaN,0.708016833576792,0.565785706731381,0.308976162126494,0.255063205452965
195,1,0.7,0,0.274718016618863,1,0.125690714106895,0,1,0.664044054259979,0.542610513347798,0.259622316777897,0.272239770385312
196,0,0.7,0,0.324065753142349,1,0.260761102312244,1,NaN,0.66230081790141,0.549406314879439,0.256412471432371,0.257566874311885
197,0,0.3,0,0.349954946083017,0,0.253377989865839,1,NaN,0.633932123335848,0.543370235529587,0.274289080966607,0.253559988378394
198,1,0.7,0,0.303250978351571,0,0.312067968770862,1,0.5,0.624966504489752,0.52525354384139,0.296504757007886,0.316611693255695
199,0,0.7,0,0.279243033262901,1,0.330139055964537,0,NaN,0.652909925712988,0.552009892216028,0.274019617877236,0.370322199172156
200,1,0.7,0,0.328384291380644,0,0.233105673687533,0,1,0.63356449487213,0.452377724098057,0.259502533704157,0.342893203176387
