Trial_Number,Flex0_or_Spec1,Transition_Prob,First_Choice,RT1,Second_Choice,RT2,Reward,Winning_Resource,p1,p2,p3,p4
1,0,0.7,0,0.608409434440546,1,0.541844565188512,0,NaN,0.713122972178037,0.538217863228753,0.492686344223638,0.683113904548036
2,0,0.7,0,0.355326998978853,0,0.402322261012159,1,NaN,0.704120467615701,0.542324774651952,0.485321663663115,0.716847845454385
3,0,0.3,0,0.445493843522854,0,1.15374925115611,0,NaN,0.707508197457995,0.537558613299148,0.439565373715385,0.742298934226117
4,0,0.7,0,0.326813425403088,0,0.431572517263703,1,NaN,0.710654245658338,0.506521188031146,0.435750261801117,0.710877902972612
5,0,0.7,0,0.481027189642191,0,0.914988793898374,0,NaN,0.650758458240522,0.539604462756355,0.421485880568455,0.691560444053543
6,0,0.7,0,0.585346476524137,1,0.94357040990144,0,NaN,0.65190536465707,0.535722465157228,0.3822994110442,0.665628365313775
7,0,0.3,0,0.477255967212841,1,1.23204402462579,0,NaN,0.642493093108824,0.534317871410685,0.418854528166631,0.679067432619892
8,0,0.7,0,0.577899063122459,0,0.696428191266023,0,NaN,0.627855937750039,0.495598676174012,0.437468470654268,0.703842862384126
9,0,0.3,1,0.448365309508517,1,0.65173800860066,0,NaN,0.645289988891747,0.513245344012103,0.492312599040276,0.704293711454157
10,0,0.7,0,0.588787750224583,0,0.778932471526787,1,NaN,0.694785606589848,0.54289985565035,0.453772011771833,0.702061062223773
11,0,0.3,0,0.535410945769399,0,0.879463810590096,1,NaN,0.689311847609549,0.571296921212149,0.457716174508752,0.711153412183016
12,0,0.7,0,0.719128129538149,0,0.616083402535878,0,NaN,0.685629365709273,0.576123850561925,0.453740982552656,0.745489494267954
13,1,0.7,0,0.682442243793048,0,0.554630457423627,0,0.5,0.724544927286801,0.554315741272161,0.492140637653567,0.720892707117452
14,0,0.3,0,0.55962302221451,0,1.07919224898797,1,NaN,0.734671076652551,0.534947184475873,0.497934329716921,0.72263938279499
15,0,0.7,0,0.41565249254927,0,1.45238285302185,1,NaN,0.686883257920641,0.537211874680722,0.501075882219632,0.716312975143016
16,1,0.7,0,0.933534723706543,1,0.557599615538493,0,0.5,0.703126396307534,0.509925670577895,0.504452392139529,0.73224184071094
17,0,0.3,0,0.474528568680398,0,1.14142064959742,0,NaN,0.678880399914675,0.53265885803808,0.52677877349251,0.721252420498183
18,0,0.7,0,0.459301892435178,0,0.83077851170674,1,NaN,0.663136861615194,0.532387570935597,0.507517738405079,0.738523902946074
19,0,0.3,0,0.5051263688365,1,1.21050688938703,1,NaN,0.672064643025573,0.495626977201367,0.484705909995677,0.719822372645526
20,1,0.7,0,0.461725190747529,0,1.92123387125321,0,1,0.671003833000461,0.505976830841328,0.475102084794445,0.723426058434316
21,0,0.7,0,0.53566524956841,0,1.41548751818482,0,NaN,0.71745682816158,0.510792565498373,0.489896902965286,0.74019889510015
22,1,0.7,0,0.633919638465159,0,0.406291148508899,0,0.5,0.692767649371566,0.554461092488763,0.518778571060275,0.736355557175927
23,0,0.3,0,0.88131540059112,1,1.09946470765863,1,NaN,0.697766280495932,0.536574424840069,0.51203872023387,0.74345635535031
24,0,0.7,0,0.498703392921016,0,1.85993069550022,0,NaN,0.663987174807233,0.48217277219155,0.517321239727888,0.712597564475417
25,0,0.3,0,0.444875759887509,1,0.617055382812396,1,NaN,0.604124207765152,0.466461374268952,0.530664000764431,0.671615276082469
26,0,0.7,0,0.500199185567908,1,0.420857927412726,1,NaN,0.585400909712845,0.4463963111113,0.568368134058877,0.612674029636732
27,0,0.7,0,0.535612412146293,0,1.30350224580616,1,NaN,0.568593937776999,0.460363467618088,0.588502632543547,0.641701510102666
28,0,0.7,0,0.470499241258949,1,1.05740575166419,0,NaN,0.559868747189916,0.440302961800572,0.598043230121339,0.623241028665808
29,1,0.7,0,0.419114292948507,1,0.463429292198271,0,0.5,0.55635757439512,0.450659081639818,0.572269778002809,0.596981124572591
30,0,0.7,0,0.624478848301806,0,0.845298535074107,1,NaN,0.517090433157906,0.418575317691942,0.553184714938397,0.575015844497045
31,0,0.7,0,0.590998558560386,1,1.34883065882605,0,NaN,0.507590789353878,0.460409631807227,0.576567303884825,0.612074530909686
32,1,0.7,0,0.386831777868792,0,1.7363181526307,0,1,0.494155129777471,0.424471399698798,0.575625311313095,0.624023027584953
33,0,0.3,0,0.605883882381022,1,0.707600071793422,1,NaN,0.509153786347809,0.442018257244545,0.60226775197772,0.60779906476247
34,0,0.7,0,0.594773202086799,1,1.49686586752068,1,NaN,0.512866359679031,0.46787956982728,0.550625341201924,0.670076154553456
35,0,0.3,0,0.472617299063131,1,0.883109591668472,0,NaN,0.531253196094404,0.482589420963955,0.517616444103362,0.680082134456179
36,0,0.7,0,0.563073418918066,0,1.0823765581008,1,NaN,0.515002027280773,0.434628372046833,0.522692468035345,0.683823816533619
37,1,0.7,0,0.890214512241073,1,1.92441665986553,0,0,0.514110848720816,0.408618697582522,0.532126251317763,0.668286981015298
38,0,0.3,0,0.706807130482048,1,0.851992920506746,0,NaN,0.544228286740379,0.418908924238846,0.521260111273078,0.619902004273419
39,0,0.7,0,0.485372781287879,0,0.831346798921004,1,NaN,0.560061551222588,0.425255108266296,0.491532357846834,0.612516397269762
40,1,0.7,0,1.03300247236621,0,0.837418919312768,1,0.5,0.553250531718264,0.426124642890903,0.484929590582843,0.570317299630322
41,0,0.7,0,0.599063675501384,0,0.684454626752995,1,NaN,0.563595288080338,0.43047192729335,0.472830488281796,0.529169662341351
42,1,0.7,0,0.420379729941487,1,0.35303978540469,1,0.5,0.560964250081941,0.458182397032384,0.498848296288462,0.506119537875161
43,0,0.7,0,0.798114730860107,0,0.691603261861019,1,NaN,0.589398409778716,0.430705486060334,0.509043570053689,0.489396517989871
44,0,0.3,0,0.427261136937886,1,1.05672532750759,0,NaN,0.586048473516836,0.437860796305947,0.517810246893748,0.490817603324103
45,1,0.7,0,1.64908549468964,0,0.45272420544643,1,0.5,0.625646403658233,0.505439157191123,0.564744997229752,0.450818181387513
46,0,0.7,0,0.509921268559992,0,1.335378026939,1,NaN,0.646009004837636,0.445485777323441,0.56167630117107,0.439389108566427
47,1,0.7,0,0.565106328693219,1,0.419757845113054,1,0,0.681755677632275,0.456572111508841,0.537074566359562,0.420181015713438
48,0,0.7,0,0.566388871171512,0,0.789134652470239,1,NaN,0.671890441855717,0.430803568343802,0.520783110609566,0.428747176217736
49,0,0.7,0,0.480858033872209,0,0.674870149232447,0,NaN,0.657947154585634,0.373034904641311,0.551197750847349,0.422792178004062
50,0,0.3,0,0.491425895364955,0,0.765369603293948,1,NaN,0.67718115154043,0.381224687384499,0.508901629353516,0.462635930187075
51,0,0.7,0,0.417907395400107,0,0.59860562463291,1,NaN,0.724228361327673,0.407518051645641,0.489964481839147,0.429933834707531
52,1,0.7,0,0.80167156259995,1,0.575330556952395,1,0.5,0.710293478436242,0.405505715216502,0.51356415653742,0.456328262103364
53,0,0.3,0,0.547398194903508,0,0.80298869649414,1,NaN,0.690068795595062,0.41398567211015,0.499360076600291,0.476217798421887
54,0,0.7,0,0.606154531589709,0,1.05975948716514,1,NaN,0.702108148107645,0.391688637338209,0.531905633539085,0.46822398489731
55,0,0.7,0,0.492768877767958,0,0.735377722769044,1,NaN,0.695196534529629,0.417117630204839,0.504560780117409,0.474671246496393
56,1,0.7,0,0.492511152871884,0,0.638594038318843,0,0.5,0.716933213653582,0.37043020068785,0.507062982585867,0.464337277106304
57,0,0.3,0,0.488403519615531,0,0.65875017864164,1,NaN,0.676281884988162,0.338997590231123,0.499253367238213,0.471031155609964
58,0,0.7,0,0.507696395507082,0,0.701308239018545,0,NaN,0.700855133992225,0.337720047905572,0.491601811471259,0.508301480767701
59,0,0.3,0,0.30841194326058,1,1.32589580316562,1,NaN,0.707333031657817,0.336857974354808,0.486053484734286,0.521977142659485
60,0,0.7,0,0.452239925973117,0,0.5677341343835,0,NaN,0.682401238612147,0.330064976693697,0.476225814149803,0.493077767342866
61,0,0.3,0,0.532087130704895,0,1.45227907889057,0,NaN,0.671656866723914,0.34501168121945,0.491431737220207,0.451296123244121
62,0,0.7,0,0.349457865348086,1,0.436814064043574,1,NaN,0.672923086599401,0.346031867378768,0.487016187106665,0.463741184883436
63,0,0.7,0,0.686627422575839,1,0.82440267119091,0,NaN,0.717820301913017,0.337221508505434,0.508602106512114,0.464993617473158
64,0,0.3,0,0.402906133444048,1,1.45633045351133,0,NaN,0.71016406169976,0.31642051617832,0.507919621049905,0.442853362011202
65,0,0.7,0,0.369674445479177,0,0.600393353612162,1,NaN,0.737056943315629,0.307901896700924,0.497077355108314,0.437461580695963
66,0,0.3,0,0.395535885356367,0,0.889398003229871,0,NaN,0.735232395166479,0.287936636405916,0.480801220355026,0.449601823079476
67,1,0.7,0,0.313423894462176,0,1.13080907368567,1,0.5,0.744007554199658,0.283043110924672,0.525130081513732,0.440172831042247
68,0,0.7,0,0.400720793521032,0,0.854061182006262,1,NaN,0.683917275746173,0.264305479411241,0.516897917434846,0.46029439637264
69,0,0.3,0,0.326898573432118,0,0.831732245860621,1,NaN,0.687627108637881,0.282256124352192,0.509368525907354,0.439103788964248
70,1,0.7,0,0.705714650684968,0,0.555073683499359,0,0,0.668295261357157,0.269978583752487,0.481927393061485,0.387445696577892
71,0,0.7,0,0.424303762614727,1,0.837522693444043,0,NaN,0.645147452010129,0.285602577516946,0.523513451748561,0.40271812846963
72,0,0.7,0,0.302607050864026,1,0.424199608387426,1,NaN,0.654366709887375,0.303602497140431,0.481044823703183,0.444098496088103
73,1,0.7,0,0.906583464820869,0,0.540100170532241,1,0.5,0.642762007393077,0.256678235483537,0.487123215787345,0.463320808121781
74,0,0.3,0,0.569939620909281,0,0.568497805856168,1,NaN,0.608697669034394,0.252666434107999,0.48477527828687,0.496405607834234
75,1,0.7,0,1.0852225557901,0,0.287162562948652,0,1,0.603057361657245,0.263653663434648,0.491606133235192,0.486224500603025
76,0,0.3,0,0.486930154380389,0,0.769197084242478,0,NaN,0.594952842554663,0.251735715511344,0.500557178208081,0.530587604933824
77,0,0.7,0,0.485582990455441,0,0.687651479849592,0,NaN,0.624088629089529,0.269592233401957,0.498339232114625,0.524217922369307
78,1,0.7,0,0.399476263439283,0,0.820796423126012,1,0.5,0.618121839195329,0.272477611416158,0.495693773249229,0.556686756177289
79,0,0.3,0,0.503322674660012,1,0.784920204197988,0,NaN,0.650736018380184,0.259703724476622,0.494823001595032,0.56679417716824
80,0,0.7,0,0.308670808444731,0,0.430118538322859,1,NaN,0.629815558926344,0.284954682798656,0.459065145079395,0.557025722288205
81,0,0.7,0,0.560557370074093,0,0.591840535867959,1,NaN,0.595289861555891,0.255959379385647,0.4798494417845,0.535795079025972
82,0,0.7,0,0.571664629154839,0,1.02657493483275,1,NaN,0.600531510520481,0.261965682104246,0.481671578472288,0.527404019081516
83,1,0.7,0,0.884929631254636,1,0.470995684852824,1,0.5,0.621384942162433,0.261502170191908,0.457090000091102,0.536730875790715
84,0,0.7,0,0.44740245223511,0,0.602563108433969,1,NaN,0.633422138420642,0.272820903983587,0.516804825966767,0.542930742768655
85,0,0.3,0,0.477879752637818,0,1.12082660512533,0,NaN,0.604449733348363,0.269262224365728,0.533207581716549,0.524400928716158
86,1,0.7,0,0.375283573404886,0,0.909745726617984,1,0.5,0.623506882791965,0.250892221061441,0.51836570901533,0.54079193380187
87,0,0.3,0,0.381248878547922,1,0.811054573860019,0,NaN,0.662197137402902,0.277033273389278,0.456961673301673,0.538279928101485
88,1,0.7,0,0.294439680175856,1,1.76835282612592,0,0.5,0.690035102973601,0.328660861688529,0.435628705045904,0.494033480511402
89,0,0.7,0,0.476937042083591,0,0.583792144432664,1,NaN,0.647461792702265,0.389377809803703,0.406306396940847,0.468343726716099
90,0,0.3,0,0.403612025897019,0,0.64086034509819,1,NaN,0.639056547531575,0.400035874341614,0.368369645667201,0.472520044677599
91,0,0.7,0,0.514989097951911,0,0.507179805310443,1,NaN,0.626422092701246,0.411554195924409,0.364608627426891,0.487471066371447
92,1,0.7,0,0.554565075901337,0,0.689964161836542,0,0.5,0.612045261307971,0.480950266662676,0.36623993663008,0.498526556595727
93,0,0.3,0,0.481784779112786,0,0.843763589509763,1,NaN,0.602916876817921,0.516483188364056,0.347815276561225,0.507691835669539
94,0,0.7,0,0.501651263912208,0,1.18300216831267,0,NaN,0.636356936034035,0.505809478700062,0.309783437413213,0.533034429031504
95,1,0.7,0,0.394702650839463,0,0.32075498951599,1,0,0.649389990189142,0.535064464681726,0.358207257505721,0.502405737028339
96,0,0.7,0,0.367435127845965,0,0.686102849664167,1,NaN,0.666857247946982,0.552662849601355,0.334286408260172,0.528293811797984
97,0,0.3,0,0.341801002854481,1,1.11011695687193,1,NaN,0.656188293369894,0.577972354811647,0.337014798237434,0.549526898538112
98,1,0.7,0,0.845422075944953,0,0.857308971928433,0,1,0.642144876528799,0.613455130130665,0.348375985917542,0.550259133627655
99,0,0.3,0,0.3384334736038,0,0.730628438177519,0,NaN,0.662818321765792,0.654466664076927,0.370684846654069,0.546582497871768
100,1,0.7,0,0.776773360208608,0,0.40789831802249,0,1,0.631829571779857,0.631017124267931,0.421743583269864,0.550480381849357
101,0,0.3,0,0.514914213330485,0,0.579548806534149,1,NaN,0.64925432326905,0.595072840325328,0.453351210292001,0.550344905654867
102,0,0.7,0,0.344155118451454,0,1.25599533517379,0,NaN,0.673810378121602,0.599380120284969,0.435946464357426,0.518992774541733
103,0,0.3,0,0.457847533281893,0,0.628698998596519,0,NaN,0.659216500264128,0.63535676798642,0.434123912136903,0.496492255924347
104,1,0.7,0,0.287281161989085,1,0.833380088675767,0,1,0.675551825843034,0.629276528997002,0.452642818893772,0.541440564511645
105,0,0.3,0,0.45908484084066,0,0.494292039540596,1,NaN,0.690710706674514,0.608481988711657,0.451417579072762,0.550793093743444
106,1,0.7,0,0.942198918084614,0,0.662516459356993,0,0.5,0.746470195861055,0.615101252828229,0.476490401544344,0.55036614396784
107,0,0.7,0,0.335542240994982,0,0.551519512548111,1,NaN,0.727357477187619,0.620898027694489,0.527709244113612,0.575132456505229
108,1,0.7,0,0.404675236204639,0,0.602245703805238,0,0.5,0.733902829338643,0.600499352539343,0.539363429305019,0.593646889241774
109,0,0.7,0,0.397400019457564,0,0.531255797017366,1,NaN,0.73267270703127,0.547587221567071,0.542958937948473,0.60889068288627
110,0,0.7,0,0.409183141193353,1,0.78264439443592,0,NaN,0.687354821510395,0.548476249876439,0.541609929371131,0.603080643693216
111,0,0.7,0,0.32255982409697,0,0.475299462559633,0,NaN,0.691327361161454,0.587126837665716,0.518000056249571,0.601405135722402
112,1,0.7,0,0.371809989097528,0,0.578527410165407,0,0.5,0.633099099856779,0.575579986281533,0.571025990887986,0.647305735141348
113,0,0.7,0,0.526806051027961,0,0.655777599313296,1,NaN,0.668708873140167,0.553209008648486,0.57065403883482,0.638237457870895
114,0,0.7,0,0.344630655134097,1,0.744709417107515,0,NaN,0.677499876194795,0.521964902580951,0.610220435654377,0.649102863610104
115,0,0.3,0,0.358359638019465,0,1.27796695346478,1,NaN,0.675389891151167,0.484212645792161,0.636019042137074,0.644707742276867
116,0,0.7,0,0.430646912311204,0,0.483275250182487,1,NaN,0.66223203268618,0.419675700891596,0.606227679363893,0.662757458906191
117,0,0.7,0,0.651106240460649,0,0.526643357356079,1,NaN,0.659942465435015,0.380939372925217,0.590162957323825,0.684431983193649
118,0,0.3,0,0.613011610577814,1,1.09024172928184,1,NaN,0.643255673363101,0.41979872367429,0.613469523074675,0.678946411524831
119,1,0.7,0,0.82625654200092,0,0.751041543087922,0,0,0.688572694304084,0.428550360328774,0.615107497676626,0.647123245641467
120,0,0.3,0,0.468135622562841,0,0.607419588253833,0,NaN,0.651605792787736,0.473386981845533,0.605648518857407,0.651366761645346
121,0,0.7,0,0.449920781888068,0,0.677136835991405,1,NaN,0.669384666466871,0.474410833319667,0.587172104282996,0.707984886054402
122,0,0.7,0,0.381686782930046,0,0.611954862368293,1,NaN,0.646524713367424,0.479789380258021,0.587588034000325,0.695162301716323
123,0,0.7,0,1.31915998412296,0,0.591977000818588,1,NaN,0.681156651370881,0.512883896770396,0.58407426056969,0.663200850967838
124,0,0.3,0,0.45145230635535,1,0.767045955639333,0,NaN,0.687152274185724,0.50168003174008,0.633187344948802,0.646515407330102
125,1,0.7,0,0.355543290148489,0,0.538790639257059,0,1,0.705879126742769,0.502333823531743,0.575156468368451,0.650521848275607
126,0,0.3,0,0.584720030194148,0,0.678571048425511,1,NaN,0.724217784143903,0.471272205237101,0.604008952941463,0.635717445153398
127,1,0.7,0,0.359318313887343,0,0.526525898720138,1,0.5,0.729948211324719,0.464192719272501,0.61527783874958,0.603968959846213
128,0,0.7,0,0.581094395718537,0,0.515257086372003,0,NaN,0.679844113897501,0.418019600644675,0.598608611283786,0.630536094644634
129,0,0.7,0,0.313710508868098,0,0.435166601208039,1,NaN,0.724148999046753,0.454558121904737,0.607530941374499,0.609499156775196
130,0,0.3,0,0.492802328779362,0,0.743007216253318,1,NaN,0.734814702533163,0.457749763943642,0.55381545497886,0.599937712151552
131,1,0.7,0,0.372922235517763,1,0.435352862579748,1,0.5,0.724139441576978,0.443093740059596,0.556040864961107,0.58511023447056
132,0,0.7,0,0.357489531277679,0,0.573345542885363,0,NaN,0.744442546464558,0.4913337666645,0.522878054545585,0.614867439312823
133,0,0.7,0,0.401360544143245,0,0.366579085704871,1,NaN,0.704869296639363,0.484783098868406,0.531631227778035,0.609221120276974
134,0,0.3,0,0.403028533677571,0,0.736645820667036,1,NaN,0.712282397390531,0.494515665547734,0.497147803034305,0.589475108451931
135,1,0.7,0,0.822449587867595,0,0.619268851936795,1,0.5,0.726129208326574,0.479250613926191,0.481858564087595,0.577018243486062
136,0,0.3,0,0.245698502869345,0,0.56172017310746,0,NaN,0.744008991534425,0.483869894232491,0.475318576131693,0.598701055160852
137,0,0.7,0,0.286892673932016,0,0.55302936991211,1,NaN,0.72518146976423,0.489644492717269,0.483949621978527,0.588515805269344
138,1,0.7,0,0.342136273393407,0,1.26195037702564,0,1,0.709519593268829,0.444220793241799,0.502475501784977,0.587724672092495
139,0,0.3,0,0.375248221796937,1,0.813979637459852,0,NaN,0.714221868483883,0.411359391869534,0.457355204456629,0.624628804777426
140,1,0.7,0,0.289125149371102,1,0.86722377827391,0,0.5,0.740007188507355,0.429638712245148,0.452547663494328,0.640076403163865
141,0,0.7,0,0.395686414907686,0,1.05793108488433,1,NaN,0.722525644915391,0.44333809585149,0.482127402171676,0.629025522591288
142,0,0.7,0,0.474995362455957,0,0.653844662592746,1,NaN,0.735830766237938,0.449046148623336,0.501194727650673,0.604581798641264
143,0,0.3,0,0.558586420724168,0,0.894403492333367,1,NaN,0.737003625616819,0.446689307784757,0.499605230709796,0.607306316871155
144,0,0.7,0,0.758153305971064,0,0.557393587660044,0,NaN,0.720277897865844,0.437469097372171,0.55311790143735,0.559708631564704
145,0,0.3,0,0.402683760039508,0,0.727969842380844,0,NaN,0.69502339578321,0.424482805146063,0.533215738175339,0.539109603336237
146,1,0.7,0,0.310501491650939,0,0.375963997561485,0,0,0.693712030493289,0.386291776024838,0.512237899717932,0.569466662231595
147,0,0.7,0,0.268285544007085,0,0.535295007517561,1,NaN,0.694136284277602,0.361397932808925,0.498272418758547,0.559796584551648
148,0,0.7,0,0.349021861678921,0,0.804269718704745,0,NaN,0.696977868929189,0.36545899399548,0.501801215982024,0.572612195821845
149,0,0.3,0,0.319574320572428,1,1.00821602670476,0,NaN,0.709304501103063,0.341055697518073,0.47741975548438,0.559630540549593
150,0,0.7,0,0.29931402602233,0,0.516567377955653,1,NaN,0.732151361122918,0.353877576390559,0.478468631693438,0.583123270630762
151,0,0.7,0,0.475149313104339,0,0.542076441692188,1,NaN,0.725915837480611,0.338350573967043,0.477763927281894,0.599168472740891
152,1,0.7,0,0.651637275354005,1,0.583185464609414,0,1,0.732017961204359,0.348602744507775,0.488026733148825,0.59808891840183
153,0,0.7,0,0.307392447371967,0,0.572401311830617,0,NaN,0.722030145680123,0.338293291046101,0.482830525574301,0.628595674326899
154,0,0.7,0,0.44888798170723,0,0.364538573659956,0,NaN,0.733167745616021,0.29765886090409,0.505046755972165,0.663186128802745
155,0,0.3,0,0.280860466766171,0,0.555087368004024,1,NaN,0.730584585892771,0.296068341896004,0.53231588743602,0.669293385081226
156,0,0.7,0,0.336135996622033,0,0.416348121711053,1,NaN,0.742874191999229,0.323359037859443,0.532569813122441,0.700926123255591
157,0,0.3,0,0.426696270820685,0,0.567443718668073,1,NaN,0.726534963919543,0.335997017678367,0.553524207507127,0.677722537712383
158,1,0.7,0,0.435809012851678,1,0.416068729711697,1,0.5,0.746723165321628,0.317914908560236,0.559559068840619,0.667270464817741
159,0,0.3,0,0.330198440584354,0,0.523233634186909,0,NaN,0.72713524857967,0.28824862955321,0.541099437017272,0.665475847758808
160,1,0.7,0,0.354286596179008,0,0.417019042768516,0,0,0.723729076958777,0.274561106591344,0.530879727426897,0.683611583550055
161,0,0.7,0,0.291681491653435,0,0.397532303002663,0,NaN,0.708512121857603,0.268276376551317,0.535228740530546,0.698656511731686
162,0,0.3,0,0.312835460528731,0,0.938055172911845,1,NaN,0.718153961322202,0.259117256052894,0.521229113311165,0.701803142972532
163,1,0.7,0,0.280014307936653,0,0.482960886554793,1,0.5,0.700226420436368,0.264898715926234,0.545629250226016,0.730821666676652
164,0,0.3,0,0.330436779069714,0,0.619257068028674,0,NaN,0.679650945527484,0.289263998510172,0.523733968500618,0.726572455280058
165,1,0.7,0,0.541578477597795,0,0.814005485968664,0,0,0.685491667823848,0.308261457673493,0.481076169056532,0.722932194609808
166,0,0.7,0,0.521057417150587,0,0.393701781169511,0,NaN,0.699452219058071,0.32180490958114,0.477316740996758,0.7119364101383
167,0,0.3,0,0.301538518862799,0,0.542982660233974,1,NaN,0.694956331356724,0.323644522433677,0.51381494497203,0.714178205918062
168,0,0.7,0,0.476910813478753,0,0.687424164963886,1,NaN,0.680234068640693,0.300086415318121,0.540078502687848,0.746774344154941
169,1,0.7,0,0.551186142722145,1,0.446840627118945,0,0,0.658039158762397,0.287700681170904,0.536919830764258,0.734571983608206
170,0,0.3,0,0.512640304164961,0,0.562026173924096,1,NaN,0.669298745308773,0.304419837496224,0.554270660430777,0.70826445470647
171,0,0.7,0,0.423269822029397,0,0.595991123234853,0,NaN,0.653785692808934,0.310761926763427,0.61900042661461,0.693398587229493
172,0,0.7,0,0.375657616648823,1,0.93446146894712,0,NaN,0.634390753305712,0.318244069047198,0.624083130092199,0.728275166440259
173,0,0.3,0,0.340321935713291,1,0.988393256207928,1,NaN,0.592186748135568,0.317010968365209,0.651729382383966,0.742161573557013
174,1,0.7,0,1.00018436065875,0,0.365399937378243,0,1,0.575279562093927,0.265109143172356,0.641852684603025,0.744331370682068
175,0,0.7,0,0.498107356484979,0,0.363537323777564,0,NaN,0.578534662911218,0.264685515236127,0.685603214839559,0.706114038153126
176,0,0.3,0,0.448648122604936,0,0.4358953012852,0,NaN,0.591818293629753,0.258211370304078,0.731391127948549,0.704464782276706
177,0,0.7,0,0.381671958020888,1,0.515886953799054,0,NaN,0.608272894863989,0.259342350327481,0.739642668935816,0.616523456991857
178,0,0.7,0,0.28212096192874,0,0.380333537003025,0,NaN,0.594678074880488,0.294221342556899,0.704170052302898,0.604712958275878
179,0,0.7,0,0.344986072159372,0,0.536891913623549,1,NaN,0.583918056753873,0.270748589565414,0.666328253795485,0.582898993653851
180,1,0.7,0,0.606873348355293,1,0.364113973686472,0,0.5,0.571216479452513,0.258701376913046,0.692575266140823,0.542929797693138
181,0,0.3,0,0.320861804764718,0,0.433662445750087,1,NaN,0.574723695607778,0.281726553503564,0.702456327197177,0.550499634831462
182,1,0.7,0,1.09906557621434,1,0.396754566812888,0,0.5,0.577825270911299,0.271867514932309,0.695652299087706,0.539946396424783
183,0,0.7,0,0.368570941966027,0,0.351367234368809,0,NaN,0.589340513042234,0.253298951108573,0.72706959193503,0.559925350464791
184,0,0.3,0,0.364374359487556,0,0.426938790711574,1,NaN,0.571504719683051,0.285256327618927,0.723499520414838,0.572063439462142
185,1,0.7,0,0.317634921637364,0,0.614397547091357,1,1,0.587500706026658,0.267424646170541,0.726301758221628,0.552502246495202
186,0,0.3,0,0.264958688057959,1,0.355793792637996,1,NaN,0.567192770971594,0.301333186284169,0.678341881618645,0.530746814151626
187,1,0.7,0,0.368877322995104,0,0.357534386101179,0,0.5,0.584794305133615,0.251476609687863,0.666651747841901,0.523963648677927
188,0,0.3,0,0.51470286375843,0,0.69847896695137,1,NaN,0.580641647129527,0.251044634765173,0.681411213159482,0.520530960512939
189,0,0.7,0,0.393810116802342,0,0.631968455738388,1,NaN,0.625203383891352,0.255218154780942,0.644027048230549,0.533629615131501
190,0,0.7,0,0.368034205166623,1,0.54252194846049,0,NaN,0.651582699719822,0.257160024601001,0.683452350941417,0.564385712136138
191,0,0.3,0,0.284402473480441,0,0.510439379140735,1,NaN,0.649684448628116,0.287449316723639,0.662606183622541,0.559392528084939
192,0,0.7,0,0.469629134633578,0,0.520433631609194,1,NaN,0.694413150216488,0.290342508400439,0.661955718267761,0.555797655937499
193,0,0.7,0,0.494754652027041,0,0.752737281727605,1,NaN,0.687951090592164,0.259316760377741,0.669312471247379,0.57237028043561
194,0,0.7,0,0.486221600789577,0,0.57616037025582,0,NaN,0.690390862184302,0.294672213664284,0.628324092099062,0.572759391869208
195,0,0.7,0,0.484455919126049,0,0.606843318440951,0,NaN,0.693604929655623,0.309172952544652,0.606317628797147,0.567797002195432
196,0,0.3,0,0.305621444014832,1,0.531035704421811,0,NaN,0.697216762261578,0.319077734295735,0.641025982333684,0.557306237431155
197,0,0.7,0,0.305030729272403,0,0.426497085136361,1,NaN,0.671630700748765,0.303092807702635,0.672804193708506,0.540731362455755
198,1,0.7,0,0.556735971127637,1,0.868135698605329,1,0.5,0.693937852619372,0.280684504402298,0.666922228045247,0.488751774079592
199,0,0.7,0,0.452845845604315,0,0.422394013497978,1,NaN,0.690110194909686,0.251197236025929,0.69486635267155,0.50966221674222
200,1,0.7,0,0.976703645195812,1,0.447548420284875,0,0,0.695919099290937,0.290660841945677,0.684516929936932,0.517138661666612
