Trial_Number,Flex0_or_Spec1,Transition_Prob,First_Choice,RT1,Second_Choice,RT2,Reward,Winning_Resource,p1,p2,p3,p4
1,0,0.7,0,0.541553327813745,0,0.477313788607717,1,NaN,0.339175323231567,0.407624949763945,0.286460943969446,0.722087386265761
2,0,0.3,0,0.413594068028033,0,0.818944696336985,0,NaN,0.338227814406009,0.417340319102234,0.278832539605842,0.697425315486542
3,0,0.7,0,0.629646254703403,0,1.89808449056,0,NaN,0.312295208583949,0.42791423496739,0.263775813673999,0.701581045625006
4,0,0.3,0,0.42564316932112,1,0.614400359801948,1,NaN,0.331560471146968,0.435767670636564,0.266614738003312,0.72942973878821
5,0,0.7,0,0.432768486440182,1,0.42097023781389,1,NaN,0.319000701369454,0.409287031795189,0.271269951141326,0.733463085984914
6,0,0.3,1,0.383232986554503,1,1.01353822182864,1,NaN,0.324389980909769,0.382500460542556,0.261249642538953,0.72986678124793
7,0,0.7,1,0.344613675959408,1,0.608714355155826,1,NaN,0.308393876728285,0.428228266717792,0.260714639418893,0.733613087039142
8,0,0.3,0,1.1878527905792,1,0.425868967548013,1,NaN,0.324164369924605,0.438348350181221,0.29135526866359,0.745696324669727
9,0,0.7,1,0.300478312186897,1,0.430531636811793,0,NaN,0.314638198874594,0.43062393085032,0.308421032700381,0.746334218007499
10,0,0.7,0,0.456285290420055,1,1.0998105769977,0,NaN,0.329657886151816,0.421829111096596,0.305565103509003,0.739020999634664
11,0,0.3,1,0.418669994920492,0,0.967718127183616,0,NaN,0.290853016381852,0.419048105310219,0.288852928530072,0.741297252504753
12,0,0.7,1,0.292100540362298,1,0.478334407322109,0,NaN,0.288547084583694,0.382551744929942,0.274705172710425,0.723919680089384
13,1,0.7,0,1.91052421089262,1,1.03216052148491,1,0.5,0.288349805078442,0.394922328797276,0.288603263100999,0.746110585224355
14,0,0.7,0,0.602045464329422,1,0.687475907616317,1,NaN,0.296082757998885,0.401594194676651,0.277333328596038,0.739437522842167
15,0,0.7,1,0.903381989337504,1,0.736552262678742,0,NaN,0.290088253163,0.471230651408211,0.281757443228052,0.733004871846703
16,1,0.7,0,1.51054262463003,1,0.78407188039273,0,1,0.316483205346341,0.433590238579252,0.28707377876321,0.742820705742567
17,0,0.7,1,0.531946044415236,1,0.659799951128662,1,NaN,0.323327019570236,0.458233649453763,0.277174354895655,0.737574775208593
18,0,0.7,0,1.54903696198016,0,0.860569415614009,0,NaN,0.325613317008683,0.468619972387688,0.26228186973825,0.71565221070394
19,1,0.7,0,1.26953492499888,1,0.512302822433412,1,0.5,0.281966773831286,0.518248108683769,0.289577788768406,0.679797116417908
20,0,0.3,1,1.37541156075895,1,1.3100892174989,1,NaN,0.301481518952986,0.539774851687141,0.296202228235172,0.704819472414785
21,1,0.7,1,1.15730424877256,1,0.588901181705296,1,1,0.313233411710784,0.527850699685976,0.281566615927439,0.688920480957712
22,0,0.7,0,1.04861691128463,1,0.963890125975013,0,NaN,0.32175726386953,0.525603838881176,0.316034403820216,0.702345594065228
23,0,0.7,1,0.569246490485966,1,0.455895577557385,1,NaN,0.29837884801328,0.568306942935407,0.308722550967733,0.682869616586227
24,1,0.7,0,1.2969666691497,1,0.451056617312133,1,0.5,0.278000039845281,0.567700136468778,0.267712425893959,0.692345670873186
25,0,0.3,0,0.725091806612909,0,0.685078161768615,0,NaN,0.283291403803475,0.519710712763289,0.300150708684873,0.716471842802833
26,1,0.7,0,1.5415795892477,1,0.68500692024827,1,0.5,0.298180337932888,0.542003155086496,0.299413161978389,0.70279532522187
27,0,0.7,1,1.02077553141862,1,1.2974556973204,1,NaN,0.300093600644195,0.508004473713857,0.277210181180431,0.713751374987772
28,0,0.7,0,0.569352143444121,1,0.591934059746563,0,NaN,0.302704089644716,0.499270375442985,0.25775537982671,0.726878744616912
29,0,0.3,1,0.348012721166015,0,0.627501776441932,1,NaN,0.298253600607897,0.464397959089104,0.272852296066788,0.695938343340392
30,0,0.7,0,1.6779588824138,0,0.784713353030384,1,NaN,0.281283008636026,0.452102388172061,0.262909725296204,0.723210102067805
31,0,0.3,1,0.50865684915334,1,1.46985611412674,1,NaN,0.306436095390608,0.456339741790189,0.257711593501483,0.732065776883736
32,1,0.7,0,2.54224702250212,0,0.7985286898911,0,1,0.263375507455395,0.422247374121914,0.265853227972567,0.741406991819831
33,0,0.3,1,0.817638508975506,1,1.06243285257369,0,NaN,0.278789936594797,0.425637838442778,0.251815440534929,0.729827197224402
34,0,0.7,0,0.58352036587894,0,0.789575255475938,0,NaN,0.282787074906155,0.407535155315511,0.258890965071533,0.741825204351324
35,0,0.7,1,0.409321413375437,0,1.14289000350982,0,NaN,0.292752071220664,0.405377039353601,0.269605344899269,0.733873522240371
36,1,0.7,0,0.881126393564045,0,1.01141366828233,0,0.5,0.261557217634074,0.442050900578137,0.270065285061436,0.718585688377451
37,0,0.3,0,1.2304939031601,0,0.851266415789723,0,NaN,0.270704052451681,0.423532954699862,0.305331869292932,0.7226781943404
38,0,0.7,1,0.660343918949366,1,0.855667062103748,1,NaN,0.311065487821632,0.400864205949839,0.302095915344394,0.749523888283039
39,1,0.7,0,2.30497012287378,0,0.370448531582952,1,0,0.326718928419868,0.401934710673186,0.298311597361672,0.72085481989921
40,0,0.3,0,0.838665195740759,1,0.72291593439877,0,NaN,0.350752367503763,0.418994658925955,0.252676365804438,0.721537059707834
41,1,0.7,1,1.68926508445293,0,1.09954915847629,0,1,0.392889229607928,0.415641539803066,0.272254225563206,0.713460901841356
42,0,0.7,0,0.603082685731351,0,0.520175566896796,1,NaN,0.374362459912898,0.419250451123481,0.298521577895975,0.67750456512916
43,0,0.3,1,0.982416733168066,0,0.972644930705428,0,NaN,0.395034128916064,0.407816613549911,0.305349231258508,0.704244760045642
44,0,0.7,0,0.569147174246609,1,0.655934820882976,0,NaN,0.374479331657438,0.43516667211197,0.307808506751694,0.746808620286627
45,0,0.3,0,0.85701490752399,0,0.692419013008475,0,NaN,0.362422229113369,0.433207446988681,0.30740404278735,0.723153768195393
46,1,0.7,0,1.5562341241166,0,0.379598182626069,1,0,0.388618382438612,0.462605439854902,0.280951171757119,0.729470548458757
47,0,0.3,1,0.928174793720245,1,0.840788239613175,1,NaN,0.410790748058553,0.472803990468982,0.292360349616084,0.741810085796683
48,0,0.7,0,0.626706955954432,0,0.759485252201557,0,NaN,0.454207413624917,0.468078116926351,0.301975268983013,0.733719066329992
49,1,0.7,1,1.2366106742993,0,1.77660122606903,1,0.5,0.470708786628871,0.468043572103225,0.305031560712365,0.736127237768783
50,0,0.3,0,0.781294384039938,0,0.723187314346433,0,NaN,0.476556601923076,0.520147903279104,0.339273250758488,0.736729125465195
51,1,0.7,1,0.777854586020112,1,1.52862186171114,1,1,0.496168129751924,0.500910144299756,0.305990462200483,0.718722552780755
52,0,0.7,1,0.023042568936944,1,1.50789976119995,0,NaN,0.468777526100165,0.484894247522019,0.316971703807321,0.726583236811707
53,0,0.3,0,0.786982803605497,1,1.06505760364234,1,NaN,0.443127226657649,0.501921840022805,0.368706623341669,0.734016654562144
54,0,0.7,0,0.865991285070777,1,0.844344560056925,0,NaN,0.43156794330472,0.52097233571257,0.42239749662855,0.688826974339386
55,1,0.7,0,1.95798405818641,0,0.725278059020638,0,0.5,0.434298406482174,0.538675701075872,0.361245978697245,0.696184368761934
56,0,0.7,0,0.480372325517237,0,0.683323397301137,0,NaN,0.4599319958257,0.528430705775048,0.403638416753229,0.713234495752204
57,0,0.7,1,0.851170723326504,1,0.598618648014963,0,NaN,0.464600809637083,0.483729342153495,0.420561149624108,0.708222446089044
58,0,0.7,0,0.577634826302528,0,1.19296947028488,0,NaN,0.493104554350945,0.484479311842506,0.388103719403009,0.733602659579147
59,1,0.7,0,1.10831060539931,1,0.765827219001949,0,0.5,0.494878606852889,0.497320364050018,0.375494273150785,0.720154260502686
60,0,0.3,1,0.482197425328195,1,0.588233447633684,1,NaN,0.494535984532884,0.529159804790738,0.380505544142208,0.724315258717075
61,0,0.7,1,0.728255996480584,0,0.800989829003811,1,NaN,0.485875516339615,0.545920907620367,0.374275000669719,0.721036293773409
62,0,0.3,1,0.420148549601436,0,0.592759973369539,0,NaN,0.487315658672832,0.51644749662285,0.334965435932433,0.727068190143566
63,1,0.7,1,1.12457530852407,1,0.533455087803304,1,1,0.480327619486765,0.550900865893936,0.302940992887287,0.696405422887039
64,0,0.7,1,0.851182797923684,0,1.07856262102723,0,NaN,0.487232651563985,0.576139786191097,0.29654073950441,0.721030718560463
65,0,0.7,1,0.679040781222284,1,0.841970057226717,0,NaN,0.467157604715187,0.598648094530468,0.313135652233719,0.715151988609918
66,0,0.7,1,0.555676270276308,1,1.16304066684097,1,NaN,0.451751971108276,0.620463023522575,0.33563224325358,0.746863734071565
67,0,0.3,1,0.416165086440742,1,0.500987263396382,0,NaN,0.479193158071482,0.606527722488954,0.330213928608267,0.731098986024082
68,0,0.7,1,0.460055030882359,0,1.01563439983875,0,NaN,0.452832646261957,0.580752710721759,0.332263031608326,0.743888380522996
69,0,0.7,1,0.441954663023353,1,0.55818329192698,1,NaN,0.463212002230542,0.57168586676193,0.352335316241902,0.732965561978736
70,0,0.3,1,0.419334408827126,1,0.607977794483304,0,NaN,0.463956053213675,0.554044854879038,0.340603144777807,0.745725805692821
71,0,0.7,1,0.467192421667278,0,0.661885262466967,0,NaN,0.528901595850814,0.563477634347076,0.344101528932777,0.721095392911818
72,1,0.7,1,0.719671144150198,1,1.12779443990439,0,0.5,0.503398987674105,0.527541868540627,0.354328014964694,0.686118435214398
73,0,0.7,1,0.75024021230638,1,0.509791272692382,1,NaN,0.492349489255155,0.495739419798784,0.338803082153835,0.69974717377788
74,1,0.7,1,0.756996342912316,0,0.876408785581589,0,0,0.491451240348229,0.490502057641277,0.338748373613714,0.687803171810018
75,0,0.3,1,0.484851457178593,0,1.17498079314828,0,NaN,0.484072891593563,0.478691782608634,0.273953962763426,0.702119100959348
76,1,0.7,1,0.731538218446076,1,0.619589488022029,0,0.5,0.488264853922896,0.500503434064355,0.256082319380635,0.692351822259144
77,0,0.3,1,0.509939490817487,1,0.703481907956302,1,NaN,0.494632744755669,0.522649302832765,0.301516238927652,0.67460469113513
78,1,0.7,1,0.950585852377117,0,0.477917827665806,1,0.5,0.478868043195049,0.555860919376215,0.32436144793341,0.662543074917049
79,0,0.7,1,0.758645453490317,0,0.685842795297503,0,NaN,0.484130696890206,0.53773970906468,0.327442251317229,0.666595970516237
80,0,0.3,1,1.1257752366364,1,1.1345994733274,1,NaN,0.513464877066802,0.559620356468981,0.346513067045358,0.687674562904108
81,0,0.7,1,0.476429915986955,1,0.975249758921564,0,NaN,0.504216571713225,0.585001996673639,0.307612830331498,0.702577670814094
82,0,0.3,1,0.835549001581967,1,0.951581114903092,0,NaN,0.498343544877585,0.588803489162297,0.315510172999082,0.660354586525819
83,1,0.7,1,0.492873626761138,0,0.542979960329831,0,0,0.484843595531917,0.600820438003594,0.339657757052765,0.615840608248977
84,0,0.7,1,1.14080318342894,0,0.980870862491429,1,NaN,0.491889573276688,0.606185367137063,0.297886450966062,0.600485297167408
85,0,0.3,1,1.14523311145604,0,0.977411140687764,1,NaN,0.483327810552058,0.609086613026693,0.292296359529416,0.609723966193634
86,1,0.7,1,0.693859531544149,1,0.479875749908388,1,1,0.518026230957625,0.5911538646716,0.291153600058328,0.601628935660913
87,0,0.3,1,0.488568974658847,1,0.938616141676903,1,NaN,0.518206219036392,0.601515604382581,0.337949313875991,0.597935580531477
88,0,0.7,1,0.432492275722325,1,0.62851726450026,1,NaN,0.58069237081092,0.627498322447431,0.353643834118007,0.599164679757092
89,0,0.7,1,0.519072537310421,0,1.13588724564761,1,NaN,0.581130064369665,0.637606015969755,0.303224596437874,0.597676525015078
90,0,0.3,1,0.549460484646261,1,0.55701354984194,1,NaN,0.581456753390655,0.585232705678929,0.302764896993067,0.588414621616636
91,1,0.7,1,0.610109895467758,0,0.311571696773171,1,0.5,0.536179884871315,0.581422862051602,0.278406729144266,0.594418767922061
92,0,0.7,1,0.542818157933652,0,0.846883277408779,0,NaN,0.534786780194011,0.593102101133575,0.269735349856235,0.58610275420762
93,0,0.7,1,0.728700348176062,1,0.617307660169899,1,NaN,0.541228339456436,0.6343459779219,0.280084484060348,0.581584222644984
94,1,0.7,1,0.867853213101625,1,0.57471907325089,0,1,0.521751921225085,0.649237240882556,0.281438443213937,0.586590742954226
95,0,0.3,1,0.523176446557045,1,1.08391505945474,1,NaN,0.548138512818328,0.632791694959014,0.310281372555345,0.614762304359173
96,1,0.7,1,1.0116624077782,0,0.425155952572823,1,0.5,0.565007997238232,0.648919107502827,0.278135687605312,0.541112811347066
97,0,0.3,1,0.539799166843295,1,0.572279971092939,1,NaN,0.552685026541743,0.655184586185331,0.268124769106324,0.573017390112642
98,0,0.7,1,0.544175362214446,0,0.720265221782029,0,NaN,0.549445687118624,0.650432413002524,0.300285849738186,0.578583896599386
99,0,0.3,1,0.446764945052564,1,0.491026792675257,1,NaN,0.583312317722748,0.629758092108654,0.294044395779482,0.572113650040273
100,0,0.7,1,0.610798761248589,1,0.848153542727232,1,NaN,0.55510731839789,0.655073528210991,0.2942905232751,0.573817052006743
101,0,0.7,1,0.593295186758041,1,0.63928553648293,0,NaN,0.541141383969173,0.67878537593946,0.286909858016662,0.538994969074925
102,0,0.7,1,0.601280829869211,0,0.598659701645374,1,NaN,0.523918309433439,0.6933242271265,0.274039711651048,0.488632111260019
103,0,0.3,1,0.417774953879416,0,0.558568778447807,1,NaN,0.567445730755256,0.710043476024956,0.2610905804054,0.473954641834478
104,0,0.7,1,0.411805493757129,0,0.881156278774142,0,NaN,0.563890883567124,0.705431083159655,0.310436646083979,0.453278605983082
105,1,0.7,1,0.488955065608025,1,0.979505508206785,0,1,0.563251488320071,0.731305701115986,0.281934574340747,0.4178245492891
106,0,0.3,1,0.535570283420384,1,0.847652742639184,0,NaN,0.558174570414555,0.743862820920384,0.259056681613859,0.389379748888633
107,0,0.7,1,0.433389430865645,1,0.57356412243098,1,NaN,0.516927662223469,0.719856616365661,0.258095945884494,0.350780775497086
108,1,0.7,1,0.546165282838047,1,0.442287925630808,0,1,0.509717881869541,0.705622915214627,0.256872049371305,0.342747757048626
109,0,0.7,1,0.468043088912964,1,0.374742920510471,1,NaN,0.49420760745823,0.655442336478508,0.264252191895126,0.368664226214686
110,1,0.7,1,0.547791450284421,1,0.395358461886644,1,0.5,0.473247456296598,0.6473257288567,0.26364459730987,0.318028017577197
111,0,0.3,1,0.415233517996967,0,0.804066175594926,0,NaN,0.416881979785342,0.660349090280696,0.296356111831542,0.333315167910471
112,0,0.7,1,0.527216359972954,1,0.567937585525215,1,NaN,0.431559627970304,0.689545506296937,0.298062391544412,0.320269431682619
113,0,0.7,1,0.796264672651887,0,0.538261143490672,0,NaN,0.408556652115965,0.705556017651308,0.31089748641009,0.271005117809605
114,0,0.7,1,0.552222586236894,1,0.655782679095864,1,NaN,0.405864024661649,0.695540039502841,0.299203586248896,0.276965427867883
115,0,0.7,1,0.560897395946085,1,1.32030204962939,1,NaN,0.407359215652604,0.712704337811003,0.326485518057401,0.256818316218116
116,0,0.3,1,0.878813473507762,0,0.994157627224922,0,NaN,0.393695252848093,0.702195307172124,0.274243846387785,0.262636565001862
117,1,0.7,1,0.821234674192965,0,0.418092519976199,1,0.5,0.410880397391347,0.70406749017162,0.285297544515304,0.293197017411824
118,0,0.3,1,0.36446397844702,1,0.859465782530606,0,NaN,0.42500234634107,0.733301403311953,0.266741835644844,0.303049941401858
119,0,0.7,1,0.404589013196528,0,1.01791803911328,0,NaN,0.397141464520997,0.729957129544012,0.25960416894864,0.274114537268664
120,1,0.7,1,0.700378694571555,0,0.829929105937481,0,0,0.387830993139336,0.744146398891936,0.263884356569744,0.281883911818428
121,0,0.7,1,0.440306457690895,0,0.700535968877375,1,NaN,0.386124927317082,0.746934557407657,0.284216929481371,0.292798086583548
122,0,0.7,1,0.555643667466938,0,0.691008076071739,0,NaN,0.366167407810076,0.730605376118413,0.310334802252448,0.313293837050774
123,0,0.3,1,0.250888476148248,1,0.654289633966982,1,NaN,0.375760065213942,0.746856631577634,0.281858690632571,0.278486872756147
124,1,0.7,1,0.327285789884627,0,0.720304465852678,0,0.5,0.37819947565747,0.742325613110287,0.300045943418987,0.270712441241863
125,0,0.3,1,0.630747774615884,0,0.891534536145627,0,NaN,0.346461675074309,0.730097424776598,0.357629971805392,0.302828379543737
126,0,0.7,1,0.611436005681753,1,0.41670120600611,0,NaN,0.344478370207299,0.733778511254148,0.347393400462385,0.337382542196754
127,0,0.7,1,0.499243365600705,0,0.716716752387583,1,NaN,0.379471433013915,0.695427237750702,0.335247715380582,0.302079585432846
128,0,0.3,1,0.37912364397198,0,0.865740431472659,0,NaN,0.346769847625223,0.685242307235354,0.338924136173667,0.293968647797677
129,0,0.7,1,0.722251218743622,1,0.531257481314242,0,NaN,0.325973348969159,0.679519578372598,0.341277355341301,0.300278829753106
130,1,0.7,1,0.633494179695845,0,0.493134441785514,0,0.5,0.322792291735674,0.706090861141189,0.355697133468049,0.325076079234064
131,0,0.7,1,0.780902558006346,1,0.763694514520466,0,NaN,0.342159794532917,0.706044915489146,0.359542662648289,0.345369645840158
132,0,0.7,1,0.656613120809197,1,0.524165369570255,1,NaN,0.375771720369686,0.727263654404316,0.357768439358976,0.35622932875817
133,1,0.7,1,0.530839391984046,0,0.555529560893774,0,0,0.366044118951097,0.741501188812686,0.331160272299325,0.361018709845307
134,0,0.7,1,0.600735353305936,1,0.590169936418533,0,NaN,0.400375088746783,0.744539424511738,0.288113124433144,0.370895906400594
135,1,0.7,0,0.681872312910855,0,0.515820200555027,1,0,0.434945611566737,0.727203559303883,0.305499385686856,0.395455733545664
136,0,0.7,0,0.834447481669486,0,0.590599195100367,1,NaN,0.437227480548063,0.718389294750881,0.298081336577749,0.416763093088151
137,0,0.3,0,0.466536460444331,1,0.885007524862885,0,NaN,0.422884809877352,0.724246789825991,0.306201864815531,0.417313756207949
138,0,0.7,1,0.51698209438473,1,0.781608629971743,0,NaN,0.428878741138275,0.721715458649769,0.272557805175523,0.385032599383977
139,0,0.3,1,0.449602815322578,0,0.605020986869931,0,NaN,0.374127723370262,0.701015576982096,0.269531086615824,0.371691913230408
140,1,0.7,1,0.696166414767504,1,0.354073647409678,1,0.5,0.404090537980089,0.707952106586235,0.258998823701657,0.401660387176168
141,0,0.3,1,0.80744831636548,0,0.940864160656929,0,NaN,0.388177814531188,0.695630942776308,0.26630009895367,0.390289591542902
142,0,0.7,1,0.610674692317843,1,0.656026287004352,0,NaN,0.402441802035118,0.716020290800623,0.273469895845942,0.387818537162185
143,0,0.3,1,0.39307904895395,0,0.975285983644426,0,NaN,0.386109372187611,0.736528550789321,0.294183146673173,0.384625847378315
144,0,0.7,1,0.579714704304934,1,0.634481291286647,1,NaN,0.379847587122708,0.72843271679246,0.277997547101364,0.358322170697086
145,1,0.7,1,1.03628888260573,1,0.544515870511532,0,1,0.386830578513091,0.731535176119948,0.252096042572658,0.331687356592382
146,0,0.3,0,0.374314568936825,1,0.716964888386428,0,NaN,0.402464403212391,0.717847707038417,0.276156049389678,0.32212481851106
147,0,0.7,0,0.539548011496663,1,0.731543048284948,1,NaN,0.427582894486163,0.724094151488963,0.301318009064567,0.299356427404064
148,1,0.7,0,0.681478071026504,0,0.46738531626761,1,0.5,0.429440165536703,0.722881851331092,0.359385852964009,0.344478412609247
149,0,0.3,0,0.540099224075675,0,0.827992616221309,1,NaN,0.435273096731627,0.735510799995031,0.30567121223405,0.348708076472955
150,0,0.7,0,0.711247187107801,0,1.90398542489856,1,NaN,0.414450402869312,0.723239063285702,0.314580031988491,0.321387056868453
151,0,0.7,0,0.511077234521508,0,0.720590033568442,1,NaN,0.360547810357243,0.740499855273261,0.338410888949888,0.285507230084556
152,0,0.7,0,0.503715253435075,0,0.576416181400418,1,NaN,0.319803971216737,0.726549933761064,0.32689974064038,0.295857571063191
153,0,0.3,0,0.508940001949668,1,1.31042731087655,1,NaN,0.31584365056954,0.703264980547986,0.291178690950702,0.269682883264986
154,1,0.7,1,1.39807618875057,1,0.467533836141229,1,0.5,0.316659877637984,0.714733027685328,0.264847739736307,0.284398245560208
155,0,0.7,1,0.62805178295821,1,0.480912066996098,1,NaN,0.309971436572127,0.700768136411541,0.296832565578847,0.297883036862975
156,0,0.7,1,1.36931591946632,1,0.640090922825038,1,NaN,0.310700888686944,0.697130434706394,0.31296244701392,0.29150257875167
157,0,0.3,1,0.442049449309707,0,0.886079158633947,0,NaN,0.292518939086846,0.684596305803484,0.296418766079529,0.268237736996952
158,1,0.7,1,0.573943269439042,1,0.412652839906514,1,0.5,0.273864716886977,0.710462915642827,0.26723035062919,0.268674554853166
159,0,0.7,1,0.471840902231634,1,0.370675235055387,0,NaN,0.270007816608088,0.709504918044059,0.279309913238272,0.260425466815051
160,0,0.3,1,0.590972908772528,1,0.629237825982273,0,NaN,0.292331024850187,0.737034750074898,0.270452669750009,0.272489261669893
161,1,0.7,0,0.911611844785511,0,0.345216809771955,1,0.5,0.251662083428129,0.717034895804089,0.274522529767153,0.279572171844133
162,0,0.3,0,0.510945620015264,0,1.00041325856,0,NaN,0.260366880609104,0.724667551496136,0.285084917506441,0.279012354328483
163,1,0.7,0,0.835530588403344,0,0.359702296555042,1,0.5,0.262663010207082,0.717145011475269,0.268661423855546,0.291829329943929
164,0,0.7,1,0.629293067380786,1,0.641489179804921,0,NaN,0.291906359556392,0.692843204276227,0.252076106175791,0.266407545596406
165,0,0.7,1,0.411268770694733,0,0.424840197898448,0,NaN,0.31692771028498,0.673595126575635,0.26407044317023,0.274486330049305
166,0,0.7,1,0.547314195893705,1,0.555366854183376,0,NaN,0.323837407778333,0.700953993918732,0.256641976635345,0.252183588608414
167,0,0.3,1,0.456479995511472,0,0.66005623806268,1,NaN,0.345821640455219,0.686565007287275,0.281893127173646,0.271917729311537
168,0,0.7,1,0.429164170287549,1,0.321932142600417,1,NaN,0.331582866903924,0.671072253247778,0.285512422192508,0.287668660170255
169,1,0.7,1,1.05630672257394,0,0.588369288481772,1,0.5,0.367279703049397,0.692719748259421,0.277831962513208,0.251060502659341
170,0,0.7,1,0.535643938928843,1,0.935656316578388,1,NaN,0.371582221179687,0.68724170687995,0.297118849335222,0.274793602024631
171,0,0.3,1,0.50945227406919,0,0.943035806529224,1,NaN,0.401622461463737,0.684187489281657,0.280868641963362,0.301738701969293
172,0,0.7,1,0.820796964690089,1,0.537574391812086,1,NaN,0.39705356521854,0.699326653080548,0.281875087072506,0.304168355114173
173,0,0.3,1,0.527198247611523,1,0.720249525271356,0,NaN,0.376981011436465,0.704681232211624,0.270620299156011,0.34558180028063
174,0,0.7,1,0.470409439876676,0,0.769427308812737,0,NaN,0.365212199879808,0.722557809253446,0.253701955083652,0.34063255307276
175,0,0.7,1,0.397749868221581,1,0.507130598649383,0,NaN,0.393851050384975,0.711040781447514,0.265841424205391,0.328552428717057
176,0,0.7,1,0.482415375299752,1,0.652627543546259,1,NaN,0.391516409051258,0.72751531617971,0.268103202308446,0.328186310818019
177,0,0.7,1,0.573614533990622,1,0.860431763343513,0,NaN,0.406462531961402,0.749025846915697,0.281698347360444,0.320272841806659
178,1,0.7,1,0.725589588284492,0,0.614341797307134,1,0.5,0.372887024016484,0.744807067110844,0.317440851508513,0.290152759295201
179,0,0.3,1,0.649446750059724,0,0.596954443491995,0,NaN,0.350732292308388,0.715549303297106,0.363411856039342,0.303768563794215
180,0,0.7,1,0.432649550028145,1,0.380831920541823,0,NaN,0.342641840868616,0.685900890196774,0.365788378746279,0.278309136731349
181,0,0.3,1,0.529291408136487,0,0.626240869984031,1,NaN,0.310945182229931,0.710711835958947,0.345288727953529,0.26656729150518
182,1,0.7,1,0.756605423055589,0,0.372142016887665,1,0.5,0.323667447573039,0.693310040715986,0.345679523329961,0.289085202498919
183,0,0.3,1,0.552478268742561,1,0.696050798520446,0,NaN,0.36739040456005,0.716724421385518,0.277181038837614,0.285554045012091
184,0,0.7,1,0.631807334721088,0,0.61196397524327,1,NaN,0.37943924087517,0.690614587357796,0.294584048518764,0.297592792483724
185,1,0.7,1,0.527065426111221,0,0.511888658627868,0,0,0.370072233021162,0.65139029314696,0.275731975769817,0.295797894898899
186,0,0.3,0,0.574975058436394,0,0.445792322978377,0,NaN,0.405486806772235,0.687552911111129,0.286735851345746,0.314453485721365
187,0,0.7,0,0.903566129505634,0,0.489007590338588,0,NaN,0.45687595544805,0.66096029682856,0.28699925928485,0.286864607628654
188,1,0.7,1,0.712809358723462,1,0.586605769582093,1,0,0.482455379554352,0.672790033661625,0.295023145791913,0.282117982947473
189,0,0.7,1,0.541923116892576,1,0.758156123571098,1,NaN,0.498650677897005,0.654796600386011,0.295284134146385,0.251676551926131
190,1,0.7,1,0.579267334192991,0,0.385998107492924,1,0.5,0.48755642524897,0.614501903998014,0.323615816811568,0.256610721659597
191,0,0.3,1,0.381781902164221,0,0.524075413122773,0,NaN,0.484466931047086,0.590588991689164,0.334071488095599,0.262809743384255
192,0,0.7,1,0.66706835385412,0,0.605259464122355,1,NaN,0.519846335698283,0.594523803386955,0.331909245180855,0.259493310355396
193,1,0.7,1,0.408471350558102,1,0.429734400473535,1,0,0.551644184201013,0.606528672390938,0.313271165198803,0.265773692640887
194,0,0.3,1,0.496138038113713,1,0.762376554310322,0,NaN,0.53521568455538,0.576192615485036,0.312906803299663,0.271130542033443
195,1,0.7,1,0.535624016076326,1,0.471755172125995,0,1,0.524539878144483,0.569803547131177,0.334090246770405,0.261184014882839
196,0,0.3,1,0.216057017445564,1,0.692858533933759,1,NaN,0.554551927935516,0.579837370488184,0.3500305725654,0.277980012396097
197,0,0.7,1,0.50075210724026,1,0.566264627501369,0,NaN,0.6082601799347,0.598771762702599,0.323184874697219,0.277692959302272
198,1,0.7,1,0.514507674612105,0,1.45129388663918,1,1,0.635732216099716,0.591092343720532,0.299271498432746,0.2620267101919
199,0,0.7,1,0.356590932235122,1,0.412075666710734,1,NaN,0.604927464823778,0.567213748423823,0.370107342180349,0.252960961028986
200,0,0.3,1,0.423093281686306,0,0.715838614851236,1,NaN,0.603690735725538,0.56389873062157,0.375663922864663,0.265511480135929
