Trial_Number,Flex0_or_Spec1,Transition_Prob,First_Choice,RT1,Second_Choice,RT2,Reward,Winning_Resource,p1,p2,p3,p4
1,0,0.7,1,0.438314423663542,1,0.642837025457993,1,NaN,0.469717667042322,0.63828694026858,0.702207155329758,0.597626622650073
2,0,0.7,1,0.836652936646715,0,0.392810083576478,1,NaN,0.469939978028615,0.644592881087705,0.736388331266948,0.640381371779006
3,0,0.7,0,0.756845710217021,1,0.340050623519346,0,NaN,0.432490938042543,0.676244520077482,0.749541593088258,0.634375962100905
4,0,0.7,0,1.08184393669944,0,0.243920433335006,1,NaN,0.431979985571371,0.674107271919542,0.727000105858406,0.652672688610372
5,0,0.7,1,0.885695181670599,1,0.263762586051598,0,NaN,0.422865738853696,0.715519584931562,0.687294596286302,0.603545834305955
6,0,0.3,1,0.856888726586476,0,0.14050312503241,1,NaN,0.420584337421647,0.743138352359638,0.677014849319026,0.530408371761196
7,0,0.7,0,1.41028528136667,1,1.22372509399429,0,NaN,0.438312607101113,0.740908903998509,0.69760231838594,0.486592612404349
8,0,0.3,0,1.1862205847865,0,1.36020400305279,1,NaN,0.431995713433385,0.733995139675149,0.694890540585897,0.500982273696896
9,0,0.7,0,1.07745627057739,0,2.48794561531395,0,NaN,0.45393104040927,0.74413821277016,0.682982983745285,0.50028538429976
10,0,0.7,1,0.831976079964079,1,0.923925987794064,0,NaN,0.491823140539617,0.744963071878558,0.664451358698989,0.460951296686168
11,1,0.7,1,2.88254517840687,0,0.90868884709198,1,0,0.49193191467643,0.724064762239681,0.640383985696907,0.474205618221635
12,0,0.3,0,0.427693464094773,1,0.360366106731817,1,NaN,0.488807801756732,0.728668472336996,0.66250925741332,0.460203789528546
13,0,0.7,1,0.413723569479771,0,0.650944925495423,1,NaN,0.508327927065765,0.737809258436173,0.665854902395564,0.419588527185862
14,0,0.3,0,0.348171202000231,1,0.227765912655741,1,NaN,0.535295594199752,0.742437557724026,0.667886321829078,0.449668813347148
15,0,0.7,1,0.334085691487417,1,0.000405712053179741,1,NaN,0.519364643306627,0.699834767708217,0.692105207782154,0.467157766061649
16,0,0.3,1,0.473437186330557,0,0.22004229191225,0,NaN,0.544377382583819,0.690450506734198,0.72031160868592,0.490700435486983
17,1,0.7,0,0.238808281486854,1,0.354653537389822,0,0.5,0.58658076698722,0.702568282166669,0.723425800730532,0.489638912598378
18,0,0.3,1,0.383861176436767,0,0.0225058449432254,1,NaN,0.568402264647375,0.705216799723338,0.703249688171555,0.517669227413405
19,0,0.7,1,0.281871104962192,1,0.0916338509414345,1,NaN,0.599538813417005,0.735189522106024,0.669800675198989,0.532410326941785
20,0,0.3,0,0.0434398578945547,0,1.21557191351894,0,NaN,0.621048458814552,0.743225016817174,0.683369326136366,0.518158798426207
21,0,0.7,1,0.00019289436750114,0,0.151475158403628,0,NaN,0.611335885712131,0.729794201597093,0.645326319601462,0.479919241481339
22,0,0.7,0,0.000185951357707381,1,0.258154765237123,1,NaN,0.605051684427943,0.707916014867983,0.644004256339317,0.499269904056228
23,1,0.7,1,0.115253290743567,0,0.412094080471434,1,0,0.598705583507787,0.670315757218391,0.687671394057074,0.49203763295278
24,0,0.7,1,0.319199322606437,1,0.335933130001649,0,NaN,0.606625972901856,0.718938149605501,0.698579715523077,0.447651932948568
25,0,0.3,0,0.22169442102313,1,0.874433655990288,1,NaN,0.566380506900685,0.700010043080257,0.74225773937975,0.390966275475012
26,0,0.7,0,0.226907095289789,1,0.175862251082435,1,NaN,0.551128272892541,0.709087560549432,0.749248356673438,0.416327053397882
27,0,0.7,0,0.260259094182402,0,0.000182328862138093,1,NaN,0.553253880825418,0.72205377645905,0.715079606031223,0.417241816463609
28,1,0.7,0,0.714956855401397,0,0.435613601584919,1,0.5,0.552525715128702,0.66735379146011,0.699095374746694,0.437236524214883
29,0,0.7,1,0.277497022878379,0,0.168279904988594,0,NaN,0.539587651956825,0.715202598178791,0.659013117687077,0.439821869049561
30,0,0.7,1,0.156856879359111,1,0.212178301997483,1,NaN,0.563714644976616,0.677908249570072,0.632005595088829,0.465644309419399
31,1,0.7,0,0.079370723804459,1,1.0181236123899,0,0,0.572790005598506,0.665362946124152,0.624722627173552,0.463851520604175
32,0,0.3,1,0.300637396401726,1,0.789918480324559,1,NaN,0.527680487352072,0.649306117058959,0.639571066640591,0.445867602023972
33,0,0.7,0,1.33784939453471,1,0.617886645137332,0,NaN,0.523919883103358,0.63410287875575,0.674904395476157,0.38871176790043
34,1,0.7,1,1.54027551587205,1,1.18052491999697,0,0,0.531888372800231,0.625108860603675,0.631116925804837,0.373312443831662
35,0,0.7,0,0.432980398065411,0,0.437096985988319,1,NaN,0.536654533606457,0.647034650271118,0.639876484099189,0.363270066783097
36,0,0.3,1,0.415017682011239,1,0.0596843356033787,1,NaN,0.490447775676727,0.685787613819942,0.620739327747818,0.386059374200139
37,1,0.7,1,2.32482978363987,0,0.221526581910439,1,0,0.463992193746195,0.704889659102122,0.63143579466965,0.378308433049969
38,0,0.3,0,0.32003882038407,1,0.208710732520558,0,NaN,0.478409043451552,0.693447768682644,0.606621117561998,0.375732744629625
39,0,0.7,0,0.37998034839984,0,0.178665406769142,1,NaN,0.435428075969107,0.688621170856176,0.628285430755511,0.341527850125074
40,0,0.3,0,0.647071945946664,1,0.195318313315511,1,NaN,0.420393308784672,0.701598875344393,0.623566890417657,0.316505083851713
41,1,0.7,1,0.959688712726347,0,0.479112927685492,1,0,0.41604086020781,0.702366222109356,0.614030321561785,0.253434632199281
42,0,0.7,1,1.08760933321901,0,0.273043247289024,1,NaN,0.395428659305344,0.694642685871325,0.609865486750671,0.250445739615581
43,0,0.3,1,0.841482539195567,1,0.125600757077336,1,NaN,0.391949340820826,0.714060980919156,0.572480804320336,0.270624615621133
44,1,0.7,0,1.24424916878343,1,0.0481749754399061,0,0.5,0.401651774537391,0.745699585122738,0.545152478790395,0.288124458597438
45,0,0.7,1,0.417315810802393,0,0.00652037083636969,0,NaN,0.395767824018941,0.707038765778058,0.528756156131021,0.333803714252394
46,1,0.7,0,0.281340721063316,1,2.53149535343982,1,0.5,0.414137590167878,0.719173830826917,0.524332836430679,0.324750860591466
47,0,0.7,0,0.313185186008923,1,0.0506382265593857,1,NaN,0.360328469752878,0.749261697830999,0.481765884496463,0.357617142583822
48,0,0.3,1,0.899766806163825,1,0.117168045951985,0,NaN,0.385710789697624,0.73948689124938,0.49912287395936,0.386067626795876
49,1,0.7,1,1.18783860269468,1,1.1378324899124,0,0.5,0.391084818316823,0.731042937812229,0.491838249220108,0.423992719014021
50,0,0.3,0,1.3757137315115,1,0.014273876673542,0,NaN,0.407350028113267,0.692963383664389,0.49600921380084,0.422104530825459
51,1,0.7,1,1.74491162027698,0,0.209008979145437,0,0,0.409427126183125,0.692246363021531,0.479557003279133,0.423932025583445
52,0,0.3,1,0.364097811630927,0,0.331548482412472,0,NaN,0.415036628081377,0.662316615989227,0.492091484214315,0.390965424526211
53,0,0.7,1,0.457403111387976,0,0.220791228930466,1,NaN,0.446042832588978,0.660748657648004,0.466354517275834,0.386734159759435
54,1,0.7,0,0.683842007769272,1,1.23787882667966,0,0.5,0.444100252889821,0.69407732348666,0.454848908150767,0.386815641743811
55,0,0.3,0,0.215632891049609,0,0.156595460837707,1,NaN,0.421892919466205,0.709410785122989,0.421096351673233,0.395541607818607
56,1,0.7,1,1.48170447326265,1,0.251790762529708,1,0.5,0.399147735791522,0.703886581364293,0.403887878147396,0.375208671215647
57,0,0.3,1,0.269563602982089,1,0.143574944231659,0,NaN,0.375998366101411,0.724447697454933,0.417656520307478,0.378076876166445
58,0,0.7,1,0.621628311695531,1,0.466283494257368,0,NaN,0.343363671897703,0.743045504582375,0.379956282252831,0.36615947881329
59,1,0.7,0,0.826795403729193,0,0.231519050197676,0,0,0.368072250048735,0.71631286732932,0.407483024523307,0.378318352232292
60,0,0.3,1,0.705370098934509,0,0.210772799793631,0,NaN,0.337175838570593,0.713710213770242,0.398215313967701,0.374335568004227
61,1,0.7,1,1.27798393752892,0,0.992688732338138,0,0,0.349625740872691,0.723825436853993,0.348063635854383,0.42106095667932
62,0,0.7,1,0.308381846291013,1,0.133912418736145,1,NaN,0.359192271362671,0.727274213450705,0.370560235291996,0.409090550962145
63,0,0.7,0,0.539668457233347,0,0.219886527396739,0,NaN,0.372078758194374,0.738125367326453,0.368468010788628,0.382985009830008
64,0,0.7,0,0.414367757970467,0,0.427206549327821,0,NaN,0.37688149037048,0.733621115050132,0.350479701256293,0.400325012610179
65,0,0.7,0,0.349651567754336,0,0.157061244710349,0,NaN,0.446907721823999,0.73026784491216,0.350751768796587,0.430879341974828
66,0,0.7,0,0.410179023398086,0,0.239530654042028,1,NaN,0.447938575429135,0.742180478174184,0.339962231013352,0.431654112349765
67,0,0.3,0,0.481492863036692,1,0.000172065338119864,0,NaN,0.432084872222814,0.728956103039677,0.345965776209824,0.382975786445092
68,1,0.7,1,1.67057395877782,0,0.105489639099687,0,0,0.471568658249093,0.744027291373693,0.369263361006111,0.389390199984384
69,0,0.3,0,0.264511523069814,0,0.85133644961752,1,NaN,0.42554338619726,0.749131720865771,0.345192164659244,0.389967057131213
70,1,0.7,1,0.412535413051955,1,0.129929860704578,0,1,0.430727497701069,0.716532026950488,0.367654268996219,0.418618383337416
71,0,0.7,0,0.232474767486565,1,0.000181725132279098,1,NaN,0.478706439297375,0.699648956841777,0.335455975860088,0.405549951638998
72,0,0.7,0,0.47178898146376,1,0.146508205565624,1,NaN,0.50355899277708,0.720923246501931,0.312002314442801,0.390849054856121
73,1,0.7,0,0.392291472759098,1,0.270350877428427,1,0,0.500362661537315,0.731962906310765,0.303045570378385,0.388575782794594
74,0,0.3,0,0.486987181240693,0,0.000177197158336639,0,NaN,0.484223951790485,0.682297478580433,0.334390600506912,0.382739495467556
75,0,0.7,0,0.580186223029159,0,0.330961045343429,1,NaN,0.515475503918709,0.718193605711387,0.308261028004169,0.362676293489901
76,0,0.3,0,0.609434916288592,0,0.222824618685991,0,NaN,0.483210489513127,0.733039943722809,0.330329648598153,0.371187936482721
77,1,0.7,1,2.37736586073879,1,0.456107791396789,1,0.5,0.482750024513028,0.699307312354194,0.352342132914626,0.338175288199803
78,0,0.7,1,0.313127529108897,1,0.362681140191853,1,NaN,0.498197792556325,0.678006434745109,0.34570077458026,0.348366094597422
79,0,0.7,1,0.591842291527428,0,0.725936435395852,0,NaN,0.523349264163367,0.660786108970694,0.348376412081877,0.324920771121683
80,0,0.3,1,0.436412648996338,0,0.15238257672172,1,NaN,0.524790385575443,0.653725587039926,0.344140357632702,0.313846247272297
81,0,0.7,1,0.453722120495513,0,0.312956671230495,0,NaN,0.558541353596063,0.61392155462638,0.339273506490294,0.298757281423068
82,1,0.7,0,2.44816591928247,1,1.69153906404972,0,0.5,0.574220902924341,0.571322595528823,0.318264343446085,0.340402876862135
83,0,0.7,0,0.691443975432776,1,0.301343468017876,1,NaN,0.593376025542984,0.590424984252179,0.337412066169659,0.333401693702417
84,1,0.7,1,0.212753362371586,0,0.890119676012546,0,0.5,0.592829898405795,0.570160602225969,0.311504205206697,0.331992678201174
85,0,0.7,0,0.554338688030839,0,0.129247938632034,1,NaN,0.58187350097348,0.573364904679366,0.33505910933768,0.3246937205283
86,0,0.7,0,0.543834853568114,0,0.168000676087104,1,NaN,0.56743461663963,0.591777841833013,0.337074480280084,0.310716177749903
87,0,0.3,0,0.388427851023152,0,0.000108371023088694,1,NaN,0.574222136325192,0.575314505622716,0.34768721823695,0.352915281199328
88,0,0.7,0,0.509620112949051,0,0.263012441573665,0,NaN,0.568204101086664,0.582166649789894,0.377487794015209,0.346604100059722
89,0,0.7,0,0.440310985548422,0,0.164389417041093,0,NaN,0.553995315168084,0.556661204434665,0.33087182747813,0.317892445685301
90,0,0.7,1,1.16088683076669,0,0.000172970932908356,0,NaN,0.541502060662796,0.613285187362769,0.305632714462854,0.331586811155892
91,0,0.7,0,0.595325558213517,0,0.0815807069884613,0,NaN,0.554876509995297,0.610589890521044,0.30929343984311,0.338599081184628
92,1,0.7,1,1.44999313249718,0,0.580798111506738,1,0.5,0.551165620805839,0.606172004880733,0.317029841870905,0.392887135102741
93,0,0.3,1,0.593338354374282,1,0.000185649492777884,0,NaN,0.564915817638613,0.595471180646781,0.29384213677478,0.427844387047922
94,1,0.7,0,1.51455416204408,1,0.219338333350606,1,0,0.574765376313831,0.577782061441998,0.334481450209331,0.37976671430694
95,0,0.3,1,0.373776638065465,0,0.292481801123358,1,NaN,0.545583008098672,0.559928886828553,0.366644718793066,0.374914800064476
96,1,0.7,1,0.596403532428667,0,0.418561624246649,0,1,0.538732745421993,0.580354615678537,0.353430349787549,0.321004546810763
97,0,0.3,0,0.197002742439508,1,0.427048973739147,0,NaN,0.634337330216143,0.598171386558371,0.328731318205943,0.346698334168751
98,0,0.7,0,0.469451005919836,1,0.240349021041766,1,NaN,0.661201145935737,0.555086279555891,0.315823498093325,0.390294626878978
99,0,0.3,0,0.370169605128467,1,0.15286768018268,0,NaN,0.677908578010085,0.552984460174469,0.309501513120877,0.379577751304548
100,0,0.7,0,0.6380351948319,1,0.313881597947329,0,NaN,0.664437144575177,0.512963299171067,0.323432562875008,0.447831093126139
101,0,0.3,1,0.233763748197816,0,0.205494619905949,1,NaN,0.645901725085689,0.471700581554829,0.342031373227771,0.439371637764721
102,0,0.7,1,0.697182807372883,0,0.258536327630281,1,NaN,0.648719194422028,0.506326966999145,0.360285614556529,0.407287579800498
103,1,0.7,0,1.25184268399607,0,0.415138429496437,1,0.5,0.66163971443215,0.460626651543653,0.374011447448105,0.389346166173228
104,0,0.7,0,0.593754933681339,0,0.535851625376381,0,NaN,0.681478044679836,0.465017226888201,0.372839482375644,0.407666611182124
105,1,0.7,0,0.821702873334289,0,0.314259839826263,1,0.5,0.645221940267859,0.439811284591983,0.2996832130712,0.396092495463886
106,0,0.3,0,0.48091387830209,1,0.123056604992598,1,NaN,0.674784484319295,0.463162211273928,0.300886970947245,0.412370683593618
107,1,0.7,0,0.697511844569817,1,0.41882274101954,0,1,0.685639510186756,0.481919179618402,0.328212463492121,0.429730628382348
108,0,0.7,1,0.709275680361316,1,0.246843129163608,1,NaN,0.656974727902713,0.446413777037943,0.307401653590684,0.405341889778249
109,0,0.3,1,0.592711674398743,1,0.046711212489754,1,NaN,0.654574567054868,0.473649498586698,0.294459649610533,0.383619878502865
110,1,0.7,1,1.71244681451935,0,0.569991502328776,1,0.5,0.698899817746486,0.453083288466592,0.285698234283982,0.40650234899427
111,0,0.3,1,0.51836767338682,1,0.0153150230180472,0,NaN,0.712506566551001,0.494293639127749,0.266109438812272,0.414979331265553
112,1,0.7,0,1.09789763321169,0,0.283163104439154,1,0.5,0.700101869435141,0.450865225171201,0.277309480090779,0.48363253265138
113,0,0.7,1,0.634982695337385,0,0.199088053661399,0,NaN,0.659602916704082,0.469419751230097,0.275250322197314,0.460795908648914
114,0,0.3,0,0.254807641613297,0,0.114184674457647,0,NaN,0.694677634171917,0.507689567810646,0.300038842683154,0.48707796874745
115,0,0.7,0,0.000185951357707381,0,0.0868534531909972,1,NaN,0.726026393750655,0.551128594154455,0.261942147765516,0.525572797020695
116,0,0.3,0,0.334671317366883,0,0.00702086975798011,0,NaN,0.741472470851045,0.560726707318081,0.257135166449982,0.519442949978161
117,0,0.7,0,0.417770123807713,0,0.0387910749996081,1,NaN,0.745160762630866,0.564837220364975,0.266926777724358,0.510867599446449
118,1,0.7,1,1.35246679815464,1,0.00834154663607478,1,1,0.722654541978905,0.54071589153993,0.278270574723184,0.471965141884146
119,0,0.7,1,0.483052016585134,1,0.0771233089035377,0,NaN,0.694239002173103,0.546728645659453,0.265250339659452,0.456682533780529
120,0,0.3,1,0.357529141707346,0,0.00506234355270863,1,NaN,0.702889802805437,0.53469890047481,0.276080476060573,0.428177131660475
121,0,0.7,1,0.392261889530346,0,0.390483277151361,0,NaN,0.683422665881285,0.518611883140365,0.253693119957139,0.474536830324557
122,0,0.7,0,0.578171549132094,1,0.000177498906850815,1,NaN,0.665864639084003,0.521322588785553,0.277394608079579,0.47998871085191
123,0,0.7,0,0.420197754283436,1,0.00146497040987015,0,NaN,0.676823653671122,0.480883700857363,0.282291533648379,0.470230834162074
124,0,0.3,1,0.436083611682989,0,0.00804631877690554,0,NaN,0.606270995315785,0.457727232204836,0.261331478687435,0.48772600641971
125,0,0.7,0,0.387248146813363,1,0.000174178392626345,1,NaN,0.603272194072423,0.453095733245223,0.254660728716352,0.46540385774283
126,1,0.7,1,0.996556580066681,1,0.34671589138452,1,1,0.616892557918699,0.4191059924673,0.255125291756171,0.426338986492128
127,0,0.3,1,0.336553772678599,0,0.0328351991483942,0,NaN,0.610559070474856,0.434221097593667,0.255911887014412,0.433965505379949
128,1,0.7,0,1.00228695967235,0,0.255672194412909,1,0.5,0.577166520049541,0.414007817544335,0.260479276523895,0.418264205435178
129,0,0.7,0,0.464951044414192,0,0.000177197158336639,0,NaN,0.536636852427167,0.410590083551611,0.259768779326447,0.391096563327953
130,0,0.3,0,0.510865020798519,0,0.160242944140919,1,NaN,0.526778804111606,0.39523147695894,0.27275197634452,0.35207001747467
131,0,0.7,1,0.573534539085813,0,0.620304314186797,1,NaN,0.554857091730606,0.4026066484471,0.257801191173068,0.357869972199227
132,0,0.7,1,0.350748257827945,1,0.00640747183933854,0,NaN,0.536748967619658,0.407832498686611,0.268144664975902,0.357450376212077
133,0,0.3,1,0.425375411869027,0,0.142098804702982,1,NaN,0.568678890469481,0.408921228285364,0.266813237675078,0.355796592520377
134,0,0.7,1,0.555993835791014,0,0.387270183418877,0,NaN,0.589868097872057,0.386373078683331,0.260520538180616,0.357385130111123
135,0,0.7,0,0.415169220184907,0,0.0280149546451867,0,NaN,0.563925079758925,0.417149961227298,0.324395269759272,0.31038314059683
136,1,0.7,0,1.35035401699133,1,0.205740039469674,1,0.5,0.578642286596145,0.406816555857156,0.343717431481739,0.328310827364353
137,0,0.7,0,0.424993547494523,1,0.00017931021284312,0,NaN,0.569436985194306,0.407392353776964,0.294250956538005,0.356934035945023
138,0,0.3,1,0.320965558290482,1,0.00237087928690016,1,NaN,0.598296192652357,0.40859812589828,0.278826657345853,0.364249607007548
139,1,0.7,1,1.16484523925465,0,0.283666923758574,1,0.5,0.596954562820336,0.399662101168356,0.261108909316999,0.32753905638679
140,0,0.3,1,0.419326258590445,0,0.000175385852344334,1,NaN,0.546377920775964,0.423314004362103,0.252473090165525,0.355127471074456
141,1,0.7,0,0.907353982212953,0,0.0289314289111644,1,0.5,0.546716164803711,0.422799228908683,0.303502530067346,0.340475466786138
142,0,0.7,1,0.391317039495334,1,0.000179008347913623,1,NaN,0.574217320659062,0.400633384472827,0.286583280157614,0.309229430355206
143,0,0.3,1,0.368527135695331,0,0.000182026997208595,1,NaN,0.632601779506302,0.389310347180137,0.279549722022037,0.351921298125892
144,1,0.7,1,0.946337951347232,0,0.114549332181923,1,0,0.620676337894691,0.365642586773731,0.311845147326119,0.296166890747749
145,0,0.7,1,0.401099105132744,1,0.054491282789968,1,NaN,0.617881622545092,0.381154179586265,0.266133797368484,0.289898014466623
146,0,0.3,1,0.367701222072355,1,0.00011531391646713,0,NaN,0.592702155940101,0.380013320403004,0.273975556583585,0.277359597438759
147,1,0.7,0,0.817619491135702,1,0.198359945672564,1,0.5,0.595513761743577,0.395189029507389,0.310198568857662,0.264505885312167
148,0,0.3,1,0.401387993828394,1,0.000174178392626345,0,NaN,0.596540793049965,0.384248115644187,0.255852492585742,0.258153962462007
149,0,0.7,0,0.666115051368251,0,0.000197120476514101,0,NaN,0.602120218040954,0.368552946244178,0.269257646381894,0.256989755200014
150,0,0.3,0,0.400045582209714,1,0.00543786853086203,1,NaN,0.603579391681169,0.395314633196269,0.252001228884171,0.267086780814009
151,1,0.7,0,1.51251896121539,1,0.298006305936724,1,0.5,0.63224026918343,0.415375225527891,0.273578417778168,0.259894463352323
152,0,0.7,1,0.449074243195355,1,0.0605609632330015,0,NaN,0.63361481300062,0.385567159135845,0.268793905444484,0.252010961278036
153,0,0.3,0,0.42183237511199,0,0.458590060356073,0,NaN,0.655595556042802,0.420394743412778,0.297751345877077,0.298759980924086
154,0,0.7,1,0.12367905897554,0,0.476456480333582,0,NaN,0.639827714771776,0.390381964476315,0.293100689317223,0.268170454834719
155,1,0.7,0,0.836853981483728,1,0.329070741543546,1,0.5,0.665252804902619,0.472531640341274,0.350792482180104,0.275462721693331
156,0,0.7,1,0.415489503298886,1,0.172292348113842,0,NaN,0.658889007801894,0.458881108371926,0.32970833652802,0.307783671433755
157,0,0.3,0,0.408880684757605,1,0.406079340260476,0,NaN,0.645176151197867,0.462577868790681,0.315986921299566,0.346997492003132
158,1,0.7,1,0.889460695907474,1,0.235414669965394,1,1,0.664960168005999,0.467233202077553,0.276035440438515,0.323355427193642
159,0,0.7,1,0.541189575335011,1,0.000172669067978859,0,NaN,0.647613113153628,0.434578474583069,0.275398599526879,0.277775367693656
160,0,0.7,1,0.440555197536014,0,0.164602234726772,0,NaN,0.632725555046162,0.422264509935624,0.268621059637368,0.332809543712578
161,0,0.7,1,0.465057302266359,1,0.171917124884203,0,NaN,0.632564579071648,0.456351112625378,0.265423553303052,0.325880087864803
162,0,0.7,1,0.400506536243483,0,0.0859602226410061,0,NaN,0.663955670037021,0.507512687762028,0.251168957765657,0.325460195352327
163,0,0.7,1,0.493520834250376,0,0.0716621964238584,1,NaN,0.660326382999702,0.477543474782223,0.289294604837305,0.338658151272705
164,0,0.7,1,0.496141057345085,0,0.000173272797837853,0,NaN,0.698793022662013,0.501505016579724,0.270454958243373,0.345971171886054
165,1,0.7,0,0.885498061194085,0,0.000181423267349601,1,0.5,0.680932535439553,0.512325988021861,0.285709888922905,0.334547308669081
166,0,0.7,1,0.418663655989803,1,0.0474124541506171,0,NaN,0.668047031119778,0.569404028378931,0.278518445793116,0.314410292196275
167,0,0.7,1,0.208666961523704,1,0.222054852638394,0,NaN,0.664643856752968,0.581873055127392,0.277769383879091,0.32255955400856
168,0,0.7,0,0.432651360868476,0,0.000175385852344334,0,NaN,0.677477462700806,0.574768967643436,0.285855293420057,0.300533889495165
169,0,0.3,0,0.519906299887225,0,0.0172086473321542,0,NaN,0.706017719068521,0.594149215606665,0.270288861920315,0.293478678937692
170,0,0.7,0,0.499152502743527,0,0.000148217659443617,0,NaN,0.749099297141689,0.578520782713792,0.259785946606199,0.32142346883654
171,0,0.3,0,0.439779394073412,0,0.000176291563548148,0,NaN,0.722364363992736,0.603307005203957,0.252476126807596,0.302603004815321
172,1,0.7,0,1.31903631333262,1,0.215706547023728,1,0,0.695292528508218,0.616901732293704,0.277332405358667,0.361518713021326
173,0,0.7,1,0.386135457665659,0,0.0563873221399263,0,NaN,0.69934010733916,0.586272484919443,0.283900561881007,0.371041690420181
174,1,0.7,0,0.617466745316051,1,0.0782441486371681,1,0,0.681209992873705,0.589489977337436,0.250604452765654,0.37538534834677
175,0,0.3,0,0.26276641828008,1,0.274154427228495,0,NaN,0.681437062421251,0.532081846562075,0.251405554421031,0.384915770167669
176,0,0.7,0,0.51453121996019,1,0.000111691537313163,1,NaN,0.67986073890213,0.575022812084562,0.299961196159749,0.349935910677227
177,1,0.7,1,0.926485837087967,0,0.247328836470842,1,0.5,0.676916548241951,0.574088780657662,0.286015588748643,0.3499567264571
178,0,0.3,1,0.377224887837656,0,0.151832269504666,0,NaN,0.682023323591835,0.582718992188878,0.268433474291043,0.346423379115532
179,1,0.7,0,0.740972833358683,1,0.173148146830499,1,0,0.704577475331215,0.595635469672296,0.256684852522617,0.358501690544355
180,0,0.3,1,0.442249890300445,1,0.157789956545457,0,NaN,0.693900859642931,0.660695014075729,0.289133922571824,0.348322441858243
181,0,0.7,1,0.434962470084429,1,0.166896741138771,0,NaN,0.663342954774308,0.715091934426743,0.251640152406621,0.352472468753654
182,0,0.3,0,0.387491453322582,0,0.369654918438755,0,NaN,0.663691258735169,0.730675972441604,0.269127899875362,0.365195515507285
183,1,0.7,1,1.03809677623212,0,0.282204670133069,1,0.5,0.685362334264607,0.749246706022488,0.296022647937785,0.346866490003996
184,0,0.3,0,0.441932323970832,1,0.246223995811306,0,NaN,0.668642763518739,0.713327860645415,0.349291902953887,0.322558752664166
185,0,0.7,0,0.399990038247779,0,0.00017931021284312,0,NaN,0.661865060886003,0.71324601895622,0.371724179160682,0.32133864641647
186,0,0.7,0,0.448610874242149,0,0.147821335820481,1,NaN,0.684192987425713,0.696005765037712,0.350006284807933,0.278062144768891
187,0,0.3,0,0.401748425327241,0,0.166458729188889,0,NaN,0.721499423109572,0.737546439919936,0.362859574546476,0.329450968373731
188,1,0.7,0,0.626963846734725,0,0.431873142602853,1,0.5,0.745023413966931,0.734080894238882,0.318964085868371,0.327516022301547
189,0,0.3,0,0.225694487453438,0,0.310455384547822,0,NaN,0.73679954991258,0.733158845337933,0.286752086223617,0.36218492858107
190,0,0.7,0,0.357606722041965,0,0.333021603175439,1,NaN,0.703918662549196,0.746171545875602,0.252404361868692,0.371278068743875
191,1,0.7,1,0.722803638782352,1,0.763620254816487,1,0.5,0.653358883310314,0.745656410375705,0.279364205713301,0.347808436962423
192,0,0.7,1,0.528724497766234,1,0.217671714373864,0,NaN,0.670952678834941,0.738456753355517,0.329889101983844,0.370155964656028
193,0,0.7,1,0.339905122527853,1,0.516117541817948,1,NaN,0.683079080600687,0.69577437938785,0.353649714648872,0.385816211356956
194,0,0.3,1,0.362586655304767,1,0.169997841585428,1,NaN,0.720316170208569,0.671221676455972,0.331915005602068,0.427633363889487
195,0,0.7,1,0.446544278878719,1,0.642588285380043,0,NaN,0.705616036049809,0.675485357845462,0.3620545532035,0.412718936147088
196,0,0.3,1,0.404489999753423,1,0.0177329938160256,0,NaN,0.703108935559764,0.698066103241568,0.373836152868811,0.420947306791789
197,1,0.7,1,0.876430217758752,1,1.19103328255005,1,1,0.686950103168794,0.669398857484207,0.387523086856901,0.441593865280866
198,0,0.3,1,0.675012338790111,1,0.381607120507397,1,NaN,0.71092504837936,0.702808155914178,0.393809158481017,0.455913690293261
199,0,0.7,1,0.48951925849542,1,0.20346092840191,0,NaN,0.688788434173984,0.723860176187355,0.402573181268993,0.468497398694596
200,0,0.7,1,0.646603445289657,1,0.0192136614350602,0,NaN,0.635377525705863,0.7357581211729,0.448078393448896,0.468789547071465
